id,participant_id,task,item,item_id,item_type,version,version_id,condition,trial_index,trial_id,block_id,key_press,response,correct_response,is_correct,reaction_time
2,9,PV,pv_practice_3,pv_practice_3,practice,,,o,8,pv_practice_1_3,pv_practice_1,3,False,False,True,1473.0
3,9,PV,pv_practice_1,pv_practice_1,practice,,,au,10,pv_practice_1_1,pv_practice_1,1,True,True,True,978.0
4,9,PV,pv_practice_2,pv_practice_2,practice,,,vi,12,pv_practice_1_2,pv_practice_1,3,False,False,True,913.0
5,9,PV,pv_practice_4,pv_practice_4,practice,,,o,14,pv_practice_1_4,pv_practice_1,1,True,True,True,1517.0
6,9,WM,aud_practice_1,aud_practice_1,practice,1,,au,22,aud_practice_1_1,aud_practice_1,c,Same,Same,True,2683.0
7,9,WM,aud_practice_3,aud_practice_3,practice,3,,au,28,aud_practice_1_3,aud_practice_1,c,Same,Same,True,1882.0
8,9,WM,aud_practice_2,aud_practice_2,practice,3,,au,34,aud_practice_1_2,aud_practice_1,b,Different,Different,True,269.0
9,9,WM,aud_practice_4,aud_practice_4,practice,1,,au,40,aud_practice_1_4,aud_practice_1,b,Different,Different,True,1117.0
10,9,WM,vis_practice_2,vis_practice_2,practice,3,,vi,52,vis_practice_1_2,vis_practice_1,b,Different,Different,True,2408.0
11,9,WM,vis_practice_4,vis_practice_4,practice,1,,vi,58,vis_practice_1_4,vis_practice_1,b,Different,Different,True,3434.0
12,9,WM,vis_practice_1,vis_practice_1,practice,1,,vi,64,vis_practice_1_1,vis_practice_1,b,Different,Same,False,472.0
13,9,WM,vis_practice_3,vis_practice_3,practice,3,,vi,74,vis_practice_1_3,vis_practice_1,c,Same,Same,True,1829.0
14,9,PV,p_1,p_1,practice,,,au,80,1_0,1,3,False,False,True,5597.0
15,9,WM,p_1,p_1,practice,1,,au,82,1_0,1,c,Same,Same,True,911.0
16,9,PV,p_2,p_2,practice,,,o,85,1_1,1,1,True,True,True,1841.0
17,9,WM,p_2,p_2,practice,3,,au,87,1_1,1,b,Different,Different,True,552.0
18,9,PV,p_3,p_3,practice,,,o,90,1_2,1,1,True,True,True,1298.0
19,9,WM,p_3,p_3,practice,1,,vi,92,1_2,1,b,Different,Different,True,1062.0
20,9,PV,p_4,p_4,practice,,,vi,97,1_3,1,3,False,False,True,2475.0
21,9,WM,p_4,p_4,practice,3,,vi,101,1_3,1,b,Different,Same,False,798.0
22,9,PV,10,10,critical,,,vi,104,1_0,1,1,True,True,True,1218.0
23,9,WM,10,10,critical,3,,au,106,1_0,1,c,Same,Same,True,1052.0
24,9,PV,168,168,filler,,,F,111,2_0,2,1,True,True,True,1654.0
25,9,WM,168,168,filler,1,,au,113,2_0,2,b,Different,Different,True,4201.0
26,9,PV,126,126,filler,,,vi,118,3_0,3,3,False,False,True,3272.0
27,9,WM,126,126,filler,3,,au,120,3_0,3,b,Different,Different,True,2114.0
28,10,PV,pv_practice_3,pv_practice_3,practice,,,o,8,pv_practice_1_3,pv_practice_1,3,False,False,True,1579.0
29,10,PV,pv_practice_4,pv_practice_4,practice,,,o,10,pv_practice_1_4,pv_practice_1,1,True,True,True,928.0
30,10,PV,pv_practice_1,pv_practice_1,practice,,,au,12,pv_practice_1_1,pv_practice_1,1,True,True,True,1115.0
31,10,PV,pv_practice_2,pv_practice_2,practice,,,vi,14,pv_practice_1_2,pv_practice_1,3,False,False,True,1813.0
32,10,WM,aud_practice_4,aud_practice_4,practice,1,,au,22,aud_practice_1_4,aud_practice_1,b,Different,Different,True,1142.0
33,10,WM,aud_practice_2,aud_practice_2,practice,3,,au,28,aud_practice_1_2,aud_practice_1,b,Different,Different,True,2957.0
34,10,WM,aud_practice_3,aud_practice_3,practice,3,,au,34,aud_practice_1_3,aud_practice_1,c,Same,Same,True,358.0
35,10,WM,aud_practice_1,aud_practice_1,practice,1,,au,40,aud_practice_1_1,aud_practice_1,c,Same,Same,True,764.0
36,10,WM,vis_practice_4,vis_practice_4,practice,1,,vi,48,vis_practice_1_4,vis_practice_1,b,Different,Different,True,600.0
37,10,WM,vis_practice_3,vis_practice_3,practice,3,,vi,58,vis_practice_1_3,vis_practice_1,c,Same,Same,True,575.0
38,10,WM,vis_practice_2,vis_practice_2,practice,3,,vi,68,vis_practice_1_2,vis_practice_1,b,Different,Different,True,829.0
39,10,WM,vis_practice_1,vis_practice_1,practice,1,,vi,74,vis_practice_1_1,vis_practice_1,c,Same,Same,True,997.0
40,10,PV,p_1,p_1,practice,,,au,80,1_0,1,3,False,False,True,1313.0
41,10,WM,p_1,p_1,practice,1,,au,82,1_0,1,c,Same,Same,True,910.0
42,10,PV,p_2,p_2,practice,,,o,85,1_1,1,1,True,True,True,1212.0
43,10,WM,p_2,p_2,practice,3,,au,87,1_1,1,b,Different,Different,True,1741.0
44,10,PV,p_3,p_3,practice,,,o,90,1_2,1,1,True,True,True,1968.0
45,10,WM,p_3,p_3,practice,1,,vi,92,1_2,1,b,Different,Different,True,940.0
46,10,PV,p_4,p_4,practice,,,vi,97,1_3,1,3,False,False,True,986.0
47,10,WM,p_4,p_4,practice,3,,vi,101,1_3,1,c,Same,Same,True,761.0
48,10,PV,76,76,filler,,,vi,102,1_0,1,3,False,False,True,1376.0
49,10,PV,102,102,filler,,,au,105,1_1,1,3,False,False,True,3961.0
50,10,WM,102,102,filler,1,,au,107,1_1,1,b,Different,Different,True,869.0
51,10,PV,121,121,filler,,,vi,110,1_2,1,3,False,False,True,1028.0
52,10,WM,121,121,filler,3,,au,112,1_2,1,b,Different,Different,True,4061.0
53,10,PV,104,104,filler,,,au,115,1_3,1,3,False,False,True,852.0
54,10,WM,104,104,filler,3,,au,117,1_3,1,b,Different,Different,True,364.0
55,10,PV,133,133,filler,,,au,120,1_4,1,3,False,False,True,867.0
56,10,WM,133,133,filler,1,,vi,122,1_4,1,b,Different,Different,True,639.0
57,10,PV,74,74,filler,,,vi,123,1_5,1,3,False,False,True,2687.0
58,10,PV,60,60,critical,,,au,124,1_6,1,1,True,True,True,2367.0
59,10,PV,155,155,filler,,,F,125,1_7,1,3,False,False,True,1228.0
60,10,PV,88,88,filler,,,vi,130,1_8,1,3,False,False,True,1006.0
61,10,WM,88,88,filler,3,,vi,134,1_8,1,b,Different,Different,True,423.0
62,10,PV,96,96,filler,,,au,135,1_9,1,3,False,False,True,3228.0
63,10,PV,7,7,critical,,,vi,138,1_10,1,1,True,True,True,2137.0
64,10,WM,7,7,critical,1,,vi,140,1_10,1,c,Same,Same,True,1127.0
65,10,PV,30,30,critical,,,vi,143,1_11,1,1,True,True,True,1904.0
66,10,WM,30,30,critical,1,,au,145,1_11,1,c,Same,Same,True,936.0
67,10,PV,140,140,filler,,,au,150,1_12,1,3,False,False,True,2112.0
68,10,WM,140,140,filler,3,,vi,154,1_12,1,b,Different,Different,True,664.0
69,10,PV,111,111,filler,,,vi,155,1_13,1,3,False,False,True,3452.0
70,10,PV,83,83,filler,,,vi,158,1_14,1,3,False,False,True,1768.0
71,10,WM,83,83,filler,1,,vi,160,1_14,1,c,Same,Different,False,506.0
72,10,PV,1,1,critical,,,vi,161,1_15,1,1,True,True,True,1506.0
73,10,PV,49,49,critical,,,au,166,1_16,1,1,True,True,True,4514.0
74,10,WM,49,49,critical,3,,vi,170,1_16,1,c,Same,Same,True,492.0
75,10,PV,142,142,filler,,,au,175,1_17,1,3,False,False,True,1026.0
76,10,WM,142,142,filler,3,,vi,179,1_17,1,b,Different,Different,True,873.0
77,10,PV,94,94,filler,,,au,180,1_18,1,3,False,False,True,3554.0
78,10,PV,160,160,filler,,,F,183,1_19,1,3,False,False,True,1633.0
79,10,WM,160,160,filler,1,,au,185,1_19,1,c,Same,Same,True,729.0
80,10,PV,70,70,critical,,,au,188,1_20,1,1,True,True,True,1690.0
81,10,WM,70,70,critical,3,,au,190,1_20,1,c,Same,Same,True,7270.0
82,10,PV,48,48,critical,,,au,193,1_21,1,1,True,True,True,2680.0
83,10,WM,48,48,critical,1,,vi,195,1_21,1,b,Different,Same,False,2908.0
84,10,PV,6,6,critical,,,vi,196,1_22,1,1,True,True,True,1125.0
85,10,PV,181,181,filler,,,F,199,1_23,1,1,True,True,True,1260.0
86,10,WM,181,181,filler,1,,vi,201,1_23,1,b,Different,Different,True,657.0
87,10,PV,22,22,critical,,,vi,202,1_24,1,1,True,True,True,2672.0
88,10,PV,149,149,filler,,,F,205,1_25,1,3,False,False,True,1982.0
89,10,WM,149,149,filler,1,,vi,207,1_25,1,b,Different,Same,False,321.0
90,10,PV,184,184,filler,,,F,212,1_26,1,1,True,True,True,3539.0
91,10,WM,184,184,filler,3,,vi,216,1_26,1,b,Different,Different,True,13367.0
92,10,PV,153,153,filler,,,F,221,1_27,1,3,False,False,True,1204.0
93,10,WM,153,153,filler,3,,vi,225,1_27,1,c,Same,Same,True,885.0
94,10,PV,64,64,critical,,,au,228,1_28,1,1,True,True,True,1508.0
95,10,WM,64,64,critical,1,,au,230,1_28,1,c,Same,Same,True,910.0
96,10,PV,65,65,critical,,,au,233,1_29,1,1,True,True,True,1192.0
97,10,WM,65,65,critical,1,,au,235,1_29,1,c,Same,Same,True,2020.0
98,10,PV,67,67,critical,,,au,238,1_30,1,1,True,True,True,4151.0
99,10,WM,67,67,critical,3,,au,240,1_30,1,c,Same,Same,True,780.0
100,10,PV,174,174,filler,,,F,243,1_31,1,3,False,True,False,1792.0
101,10,WM,174,174,filler,3,,au,245,1_31,1,b,Different,Different,True,376.0
102,10,PV,47,47,critical,,,au,248,1_32,1,1,True,True,True,2049.0
103,10,WM,47,47,critical,1,,vi,250,1_32,1,b,Different,Same,False,851.0
104,10,PV,144,144,filler,,,au,255,1_33,1,3,False,False,True,2710.0
105,10,WM,144,144,filler,3,,vi,259,1_33,1,b,Different,Different,True,769.0
106,10,PV,10,10,critical,,,vi,262,1_34,1,1,True,True,True,1421.0
107,10,WM,10,10,critical,1,,vi,264,1_34,1,c,Same,Same,True,2360.0
108,10,PV,119,119,filler,,,vi,267,1_35,1,3,False,False,True,2900.0
109,10,WM,119,119,filler,1,,au,269,1_35,1,b,Different,Different,True,3282.0
110,10,PV,38,38,critical,,,au,270,1_36,1,1,True,True,True,1293.0
111,10,PV,33,33,critical,,,vi,273,1_37,1,1,True,True,True,1555.0
112,10,WM,33,33,critical,3,,au,275,1_37,1,c,Same,Same,True,329.0
113,10,PV,125,125,filler,,,vi,278,1_38,1,3,False,False,True,2050.0
114,10,WM,125,125,filler,3,,au,280,1_38,1,b,Different,Different,True,1021.0
115,10,PV,118,118,filler,,,vi,283,1_39,1,3,False,False,True,2619.0
116,10,WM,118,118,filler,1,,au,285,1_39,1,b,Different,Different,True,681.0
117,10,PV,79,79,filler,,,vi,288,1_40,1,3,False,False,True,1776.0
118,10,WM,79,79,filler,1,,vi,290,1_40,1,b,Different,Different,True,535.0
119,10,PV,51,51,critical,,,au,295,1_41,1,1,True,True,True,3851.0
120,10,WM,51,51,critical,3,,vi,299,1_41,1,c,Same,Same,True,901.0
121,10,PV,16,16,critical,,,vi,304,1_42,1,1,True,True,True,2366.0
122,10,WM,16,16,critical,3,,vi,308,1_42,1,c,Same,Same,True,349.0
123,10,PV,132,132,filler,,,au,309,1_43,1,3,False,False,True,1851.0
124,10,PV,34,34,critical,,,vi,312,1_44,1,1,True,True,True,899.0
125,10,WM,34,34,critical,3,,au,314,1_44,1,c,Same,Same,True,100.0
126,10,PV,91,91,filler,,,au,315,1_45,1,3,False,False,True,1296.0
127,10,PV,42,42,critical,,,au,316,1_46,1,1,True,True,True,1376.0
128,10,PV,163,163,filler,,,F,319,1_47,1,3,False,False,True,1129.0
129,10,WM,163,163,filler,3,,au,321,1_47,1,b,Different,Same,False,971.0
130,10,PV,55,55,critical,,,au,322,1_48,1,1,True,True,True,1529.0
131,10,PV,19,19,critical,,,vi,323,1_49,1,1,True,True,True,3881.0
132,10,PV,14,14,critical,,,vi,328,1_50,1,1,True,True,True,1221.0
133,10,WM,14,14,critical,3,,vi,332,1_50,1,c,Same,Same,True,887.0
134,10,PV,77,77,filler,,,vi,333,1_51,1,1,True,False,False,1333.0
135,10,PV,148,148,filler,,,F,334,1_52,1,3,False,False,True,1198.0
136,10,PV,103,103,filler,,,au,337,1_53,1,3,False,False,True,1030.0
137,10,WM,103,103,filler,3,,au,339,1_53,1,b,Different,Different,True,1391.0
138,10,PV,81,81,filler,,,vi,342,1_54,1,3,False,False,True,3889.0
139,10,WM,81,81,filler,1,,vi,344,1_54,1,b,Different,Different,True,1062.0
140,10,PV,177,177,filler,,,F,345,1_55,1,1,True,True,True,1279.0
141,10,PV,170,170,filler,,,F,346,1_56,1,1,True,True,True,1212.0
142,10,PV,29,29,critical,,,vi,349,1_57,1,1,True,True,True,1065.0
143,10,WM,29,29,critical,1,,au,351,1_57,1,c,Same,Same,True,1184.0
144,10,PV,167,167,filler,,,F,354,1_58,1,1,True,True,True,2655.0
145,10,WM,167,167,filler,1,,au,356,1_58,1,b,Different,Different,True,616.0
146,10,PV,115,115,filler,,,vi,359,1_59,1,1,True,False,False,3711.0
147,10,WM,115,115,filler,1,,au,361,1_59,1,b,Different,Different,True,3781.0
148,10,PV,175,175,filler,,,F,366,2_0,2,1,True,True,True,2200.0
149,10,WM,175,175,filler,3,,au,368,2_0,2,b,Different,Different,True,306.0
150,10,PV,56,56,critical,,,au,369,2_1,2,1,True,True,True,1505.0
151,10,PV,40,40,critical,,,au,370,2_2,2,1,True,True,True,917.0
152,10,PV,146,146,filler,,,F,371,2_3,2,3,False,False,True,1493.0
153,10,PV,173,173,filler,,,F,374,2_4,2,1,True,True,True,2245.0
154,10,WM,173,173,filler,1,,au,376,2_4,2,b,Different,Different,True,1417.0
155,10,PV,43,43,critical,,,au,379,2_5,2,1,True,True,True,997.0
156,10,WM,43,43,critical,1,,vi,381,2_5,2,c,Same,Same,True,914.0
157,10,PV,161,161,filler,,,F,384,2_6,2,3,False,False,True,1056.0
158,10,WM,161,161,filler,1,,au,386,2_6,2,c,Same,Same,True,1845.0
159,10,PV,35,35,critical,,,vi,389,2_7,2,1,True,True,True,1093.0
160,10,WM,35,35,critical,3,,au,391,2_7,2,c,Same,Same,True,845.0
161,10,PV,110,110,filler,,,vi,392,2_8,2,3,False,False,True,3040.0
162,10,PV,8,8,critical,,,vi,395,2_9,2,1,True,True,True,2134.0
163,10,WM,8,8,critical,1,,vi,397,2_9,2,b,Different,Same,False,1472.0
164,10,PV,129,129,filler,,,au,398,2_10,2,3,False,False,True,2234.0
165,10,PV,18,18,critical,,,vi,403,2_11,2,1,True,True,True,1703.0
166,10,WM,18,18,critical,3,,vi,407,2_11,2,c,Same,Same,True,187.0
167,10,PV,120,120,filler,,,vi,410,2_12,2,3,False,False,True,992.0
168,10,WM,120,120,filler,1,,au,412,2_12,2,b,Different,Different,True,612.0
169,10,PV,171,171,filler,,,F,415,2_13,2,1,True,True,True,87908.0
170,10,WM,171,171,filler,3,,au,417,2_13,2,b,Different,Different,True,2757.0
171,10,PV,151,151,filler,,,F,420,2_14,2,3,False,False,True,1865.0
172,10,WM,151,151,filler,1,,vi,422,2_14,2,b,Different,Same,False,4061.0
173,10,PV,24,24,critical,,,vi,423,2_15,2,1,True,True,True,1252.0
174,10,PV,113,113,filler,,,vi,424,2_16,2,3,False,False,True,1336.0
175,10,PV,137,137,filler,,,au,427,2_17,2,3,False,False,True,1408.0
176,10,WM,137,137,filler,1,,vi,429,2_17,2,b,Different,Different,True,1974.0
177,10,PV,5,5,critical,,,vi,430,2_18,2,1,True,True,True,834.0
178,10,PV,150,150,filler,,,F,433,2_19,2,3,False,False,True,2121.0
179,10,WM,150,150,filler,1,,vi,435,2_19,2,b,Different,Same,False,2473.0
180,10,PV,80,80,filler,,,vi,438,2_20,2,3,False,False,True,1844.0
181,10,WM,80,80,filler,1,,vi,440,2_20,2,b,Different,Different,True,716.0
182,10,PV,108,108,filler,,,au,443,2_21,2,3,False,False,True,1211.0
183,10,WM,108,108,filler,3,,au,445,2_21,2,b,Different,Different,True,1784.0
184,10,PV,165,165,filler,,,F,446,2_22,2,1,True,True,True,1159.0
185,10,PV,89,89,filler,,,vi,451,2_23,2,3,False,False,True,5753.0
186,10,WM,89,89,filler,3,,vi,455,2_23,2,c,Same,Different,False,1110.0
187,10,PV,72,72,critical,,,au,458,2_24,2,1,True,True,True,17206.0
188,10,WM,72,72,critical,3,,au,460,2_24,2,c,Same,Same,True,821.0
189,10,PV,54,54,critical,,,au,465,2_25,2,1,True,True,True,1106.0
190,10,WM,54,54,critical,3,,vi,469,2_25,2,c,Same,Same,True,609.0
191,10,PV,41,41,critical,,,au,470,2_26,2,1,True,True,True,1069.0
192,10,PV,157,157,filler,,,F,471,2_27,2,3,False,False,True,1052.0
193,10,PV,61,61,critical,,,au,474,2_28,2,1,True,True,True,2507.0
194,10,WM,61,61,critical,1,,au,476,2_28,2,c,Same,Same,True,899.0
195,10,PV,93,93,filler,,,au,477,2_29,2,1,True,False,False,1290.0
196,10,PV,44,44,critical,,,au,480,2_30,2,1,True,True,True,1065.0
197,10,WM,44,44,critical,1,,vi,482,2_30,2,c,Same,Same,True,584.0
198,10,PV,25,25,critical,,,vi,485,2_31,2,1,True,True,True,3098.0
199,10,WM,25,25,critical,1,,au,487,2_31,2,c,Same,Same,True,611.0
200,10,PV,73,73,filler,,,vi,488,2_32,2,3,False,False,True,1429.0
201,10,PV,99,99,filler,,,au,491,2_33,2,3,False,False,True,1498.0
202,10,WM,99,99,filler,1,,au,493,2_33,2,b,Different,Different,True,769.0
203,10,PV,63,63,critical,,,au,496,2_34,2,1,True,True,True,2455.0
204,10,WM,63,63,critical,1,,au,498,2_34,2,c,Same,Same,True,493.0
205,10,PV,87,87,filler,,,vi,503,2_35,2,3,False,False,True,1287.0
206,10,WM,87,87,filler,3,,vi,507,2_35,2,b,Different,Different,True,719.0
207,10,PV,32,32,critical,,,vi,510,2_36,2,3,False,True,False,961.0
208,10,WM,32,32,critical,3,,au,512,2_36,2,c,Same,Same,True,230.0
209,10,PV,97,97,filler,,,au,515,2_37,2,3,False,False,True,2464.0
210,10,WM,97,97,filler,1,,au,517,2_37,2,b,Different,Different,True,1163.0
211,10,PV,105,105,filler,,,au,520,2_38,2,1,True,False,False,1232.0
212,10,WM,105,105,filler,3,,au,522,2_38,2,b,Different,Different,True,2030.0
213,10,PV,98,98,filler,,,au,525,2_39,2,3,False,False,True,1361.0
214,10,WM,98,98,filler,1,,au,527,2_39,2,b,Different,Different,True,1330.0
215,10,PV,85,85,filler,,,vi,532,2_40,2,3,False,False,True,1848.0
216,10,WM,85,85,filler,3,,vi,536,2_40,2,c,Same,Different,False,712.0
217,10,PV,172,172,filler,,,F,539,2_41,2,3,False,True,False,1217.0
218,10,WM,172,172,filler,1,,au,541,2_41,2,b,Different,Different,True,2917.0
219,10,PV,179,179,filler,,,F,544,2_42,2,1,True,True,True,1010.0
220,10,WM,179,179,filler,1,,vi,546,2_42,2,b,Different,Different,True,571.0
221,10,PV,68,68,critical,,,au,549,2_43,2,1,True,True,True,1032.0
222,10,WM,68,68,critical,3,,au,551,2_43,2,c,Same,Same,True,528.0
223,10,PV,78,78,filler,,,vi,552,2_44,2,3,False,False,True,1243.0
224,10,PV,59,59,critical,,,au,553,2_45,2,1,True,True,True,1152.0
225,10,PV,138,138,filler,,,au,556,2_46,2,3,False,False,True,1954.0
226,10,WM,138,138,filler,1,,vi,558,2_46,2,b,Different,Different,True,833.0
227,10,PV,143,143,filler,,,au,563,2_47,2,3,False,False,True,1154.0
228,10,WM,143,143,filler,3,,vi,567,2_47,2,b,Different,Different,True,693.0
229,10,PV,17,17,critical,,,vi,572,2_48,2,1,True,True,True,995.0
230,10,WM,17,17,critical,3,,vi,576,2_48,2,c,Same,Same,True,910.0
231,10,PV,2,2,critical,,,vi,577,2_49,2,1,True,True,True,2458.0
232,10,PV,122,122,filler,,,vi,580,2_50,2,3,False,False,True,1587.0
233,10,WM,122,122,filler,3,,au,582,2_50,2,b,Different,Different,True,277.0
234,10,PV,123,123,filler,,,vi,585,2_51,2,3,False,False,True,1236.0
235,10,WM,123,123,filler,3,,au,587,2_51,2,b,Different,Different,True,276.0
236,10,PV,28,28,critical,,,vi,590,2_52,2,3,False,True,False,1004.0
237,10,WM,28,28,critical,1,,au,592,2_52,2,c,Same,Same,True,2135.0
238,10,PV,162,162,filler,,,F,595,2_53,2,3,False,False,True,1731.0
239,10,WM,162,162,filler,3,,au,597,2_53,2,b,Different,Same,False,116.0
240,10,PV,11,11,critical,,,vi,600,2_54,2,1,True,True,True,825.0
241,10,WM,11,11,critical,1,,vi,602,2_54,2,c,Same,Same,True,1194.0
242,10,PV,127,127,filler,,,au,603,2_55,2,1,True,False,False,2112.0
243,10,PV,53,53,critical,,,au,608,2_56,2,1,True,True,True,2278.0
244,10,WM,53,53,critical,3,,vi,612,2_56,2,b,Different,Same,False,324.0
245,10,PV,183,183,filler,,,F,617,2_57,2,3,False,True,False,1069.0
246,10,WM,183,183,filler,3,,vi,621,2_57,2,c,Same,Different,False,731.0
247,10,PV,23,23,critical,,,vi,622,2_58,2,1,True,True,True,1234.0
248,10,PV,114,114,filler,,,vi,623,2_59,2,3,False,False,True,1715.0
249,10,PV,86,86,filler,,,vi,628,2_60,2,3,False,False,True,1743.0
250,10,WM,86,86,filler,3,,vi,632,2_60,2,c,Same,Different,False,811.0
251,10,PV,182,182,filler,,,F,635,2_61,2,1,True,True,True,2432.0
252,10,WM,182,182,filler,1,,vi,637,2_61,2,c,Same,Different,False,1478.0
253,10,PV,84,84,filler,,,vi,642,3_0,3,3,False,False,True,1870.0
254,10,WM,84,84,filler,1,,vi,644,3_0,3,b,Different,Different,True,1504.0
255,10,PV,52,52,critical,,,au,649,3_1,3,1,True,True,True,1321.0
256,10,WM,52,52,critical,3,,vi,653,3_1,3,c,Same,Same,True,87.0
257,10,PV,82,82,filler,,,vi,656,3_2,3,3,False,False,True,1955.0
258,10,WM,82,82,filler,1,,vi,658,3_2,3,b,Different,Different,True,1039.0
259,10,PV,21,21,critical,,,vi,659,3_3,3,1,True,True,True,1899.0
260,10,PV,106,106,filler,,,au,662,3_4,3,3,False,False,True,2056.0
261,10,WM,106,106,filler,3,,au,664,3_4,3,b,Different,Different,True,6375.0
262,10,PV,164,164,filler,,,F,667,3_5,3,3,False,False,True,1180.0
263,10,WM,164,164,filler,3,,au,669,3_5,3,b,Different,Same,False,1689.0
264,10,PV,158,158,filler,,,F,670,3_6,3,3,False,False,True,1976.0
265,10,PV,130,130,filler,,,au,671,3_7,3,3,False,False,True,1869.0
266,10,PV,112,112,filler,,,vi,672,3_8,3,3,False,False,True,3210.0
267,10,PV,69,69,critical,,,au,675,3_9,3,1,True,True,True,2119.0
268,10,WM,69,69,critical,3,,au,677,3_9,3,c,Same,Same,True,2792.0
269,10,PV,128,128,filler,,,au,678,3_10,3,3,False,False,True,1728.0
270,10,PV,45,45,critical,,,au,681,3_11,3,1,True,True,True,1595.0
271,10,WM,45,45,critical,1,,vi,683,3_11,3,c,Same,Same,True,589.0
272,10,PV,71,71,critical,,,au,686,3_12,3,1,True,True,True,1247.0
273,10,WM,71,71,critical,3,,au,688,3_12,3,c,Same,Same,True,356.0
274,10,PV,15,15,critical,,,vi,693,3_13,3,1,True,True,True,1626.0
275,10,WM,15,15,critical,3,,vi,697,3_13,3,c,Same,Same,True,348.0
276,10,PV,147,147,filler,,,F,698,3_14,3,3,False,False,True,1355.0
277,10,PV,9,9,critical,,,vi,701,3_15,3,1,True,True,True,2229.0
278,10,WM,9,9,critical,1,,vi,703,3_15,3,c,Same,Same,True,354.0
279,10,PV,66,66,critical,,,au,706,3_16,3,1,True,True,True,1680.0
280,10,WM,66,66,critical,1,,au,708,3_16,3,c,Same,Same,True,890.0
281,10,PV,159,159,filler,,,F,711,3_17,3,3,False,False,True,1109.0
282,10,WM,159,159,filler,1,,au,713,3_17,3,c,Same,Same,True,890.0
283,10,PV,90,90,filler,,,vi,718,3_18,3,3,False,False,True,3767.0
284,10,WM,90,90,filler,3,,vi,722,3_18,3,b,Different,Different,True,1304.0
285,10,PV,156,156,filler,,,F,723,3_19,3,3,False,False,True,1708.0
286,10,PV,152,152,filler,,,F,728,3_20,3,3,False,False,True,1120.0
287,10,WM,152,152,filler,3,,vi,732,3_20,3,c,Same,Same,True,709.0
288,10,PV,141,141,filler,,,au,737,3_21,3,3,False,False,True,1343.0
289,10,WM,141,141,filler,3,,vi,741,3_21,3,b,Different,Different,True,1017.0
290,10,PV,109,109,filler,,,vi,742,3_22,3,3,False,False,True,1110.0
291,10,PV,92,92,filler,,,au,743,3_23,3,3,False,False,True,1517.0
292,10,PV,180,180,filler,,,F,746,3_24,3,3,False,True,False,92036.0
293,10,WM,180,180,filler,1,,vi,748,3_24,3,b,Different,Different,True,1904.0
294,10,PV,4,4,critical,,,vi,749,3_25,3,1,True,True,True,1440.0
295,10,PV,95,95,filler,,,au,750,3_26,3,3,False,False,True,1518.0
296,10,PV,126,126,filler,,,vi,753,3_27,3,3,False,False,True,1463.0
297,10,WM,126,126,filler,3,,au,755,3_27,3,b,Different,Different,True,1620.0
298,10,PV,131,131,filler,,,au,756,3_28,3,3,False,False,True,1512.0
299,10,PV,26,26,critical,,,vi,759,3_29,3,1,True,True,True,1143.0
300,10,WM,26,26,critical,1,,au,761,3_29,3,c,Same,Same,True,1136.0
301,10,PV,136,136,filler,,,au,764,3_30,3,3,False,False,True,1576.0
302,10,WM,136,136,filler,1,,vi,766,3_30,3,b,Different,Different,True,3482.0
303,10,PV,75,75,filler,,,vi,767,3_31,3,3,False,False,True,4153.0
304,10,PV,145,145,filler,,,F,768,3_32,3,3,False,False,True,1198.0
305,10,PV,58,58,critical,,,au,769,3_33,3,1,True,True,True,2030.0
306,10,PV,20,20,critical,,,vi,770,3_34,3,1,True,True,True,1270.0
307,10,PV,166,166,filler,,,F,773,3_35,3,1,True,True,True,1496.0
308,10,WM,166,166,filler,1,,au,775,3_35,3,b,Different,Different,True,953.0
309,10,PV,116,116,filler,,,vi,778,3_36,3,3,False,False,True,1277.0
310,10,WM,116,116,filler,1,,au,780,3_36,3,b,Different,Different,True,823.0
311,10,PV,178,178,filler,,,F,781,3_37,3,1,True,True,True,1053.0
312,10,PV,169,169,filler,,,F,782,3_38,3,1,True,True,True,1216.0
313,10,PV,31,31,critical,,,vi,785,3_39,3,1,True,True,True,1494.0
314,10,WM,31,31,critical,3,,au,787,3_39,3,c,Same,Same,True,1732.0
315,10,PV,117,117,filler,,,vi,790,3_40,3,3,False,False,True,1740.0
316,10,WM,117,117,filler,1,,au,792,3_40,3,b,Different,Different,True,739.0
317,10,PV,3,3,critical,,,vi,793,3_41,3,1,True,True,True,1378.0
318,10,PV,124,124,filler,,,vi,796,3_42,3,3,False,False,True,1810.0
319,10,WM,124,124,filler,3,,au,798,3_42,3,b,Different,Different,True,3235.0
320,10,PV,176,176,filler,,,F,801,3_43,3,3,False,True,False,1046.0
321,10,WM,176,176,filler,3,,au,803,3_43,3,c,Same,Different,False,641.0
322,10,PV,39,39,critical,,,au,804,3_44,3,1,True,True,True,1963.0
323,10,PV,134,134,filler,,,au,807,3_45,3,3,False,False,True,1738.0
324,10,WM,134,134,filler,1,,vi,809,3_45,3,b,Different,Different,True,946.0
325,10,PV,101,101,filler,,,au,812,3_46,3,3,False,False,True,1618.0
326,10,WM,101,101,filler,1,,au,814,3_46,3,b,Different,Different,True,729.0
327,10,PV,46,46,critical,,,au,817,3_47,3,1,True,True,True,2390.0
328,10,WM,46,46,critical,1,,vi,819,3_47,3,b,Different,Same,False,3656.0
329,10,PV,12,12,critical,,,vi,822,3_48,3,1,True,True,True,1548.0
330,10,WM,12,12,critical,1,,vi,824,3_48,3,c,Same,Same,True,545.0
331,10,PV,37,37,critical,,,au,825,3_49,3,1,True,True,True,1407.0
332,10,PV,57,57,critical,,,au,826,3_50,3,1,True,True,True,1760.0
333,10,PV,62,62,critical,,,au,829,3_51,3,1,True,True,True,1148.0
334,10,WM,62,62,critical,1,,au,831,3_51,3,c,Same,Same,True,1173.0
335,10,PV,50,50,critical,,,au,836,3_52,3,1,True,True,True,1169.0
336,10,WM,50,50,critical,3,,vi,840,3_52,3,c,Same,Same,True,1331.0
337,10,PV,27,27,critical,,,vi,843,3_53,3,1,True,True,True,2067.0
338,10,WM,27,27,critical,1,,au,845,3_53,3,c,Same,Same,True,2093.0
339,10,PV,107,107,filler,,,au,848,3_54,3,3,False,False,True,2876.0
340,10,WM,107,107,filler,3,,au,850,3_54,3,c,Same,Different,False,1124.0
341,10,PV,36,36,critical,,,vi,853,3_55,3,3,False,True,False,888.0
342,10,WM,36,36,critical,3,,au,855,3_55,3,c,Same,Same,True,581.0
343,10,PV,135,135,filler,,,au,858,3_56,3,3,False,False,True,1061.0
344,10,WM,135,135,filler,1,,vi,860,3_56,3,b,Different,Different,True,724.0
345,10,PV,168,168,filler,,,F,863,3_57,3,1,True,True,True,5469.0
346,10,WM,168,168,filler,1,,au,865,3_57,3,b,Different,Different,True,1377.0
347,10,PV,154,154,filler,,,F,870,3_58,3,3,False,False,True,1381.0
348,10,WM,154,154,filler,3,,vi,874,3_58,3,c,Same,Same,True,928.0
349,10,PV,13,13,critical,,,vi,879,3_59,3,1,True,True,True,1011.0
350,10,WM,13,13,critical,3,,vi,883,3_59,3,c,Same,Same,True,679.0
351,10,PV,100,100,filler,,,au,886,3_60,3,3,False,False,True,1414.0
352,10,WM,100,100,filler,1,,au,888,3_60,3,b,Different,Different,True,1171.0
353,10,PV,139,139,filler,,,au,893,3_61,3,3,False,False,True,1458.0
354,10,WM,139,139,filler,3,,vi,897,3_61,3,b,Different,Different,True,910.0
355,14,PV,pv_practice_1,pv_practice_1,practice,,,au,8,pv_practice_1_1,pv_practice_1,1,True,True,True,1302.0
356,14,PV,pv_practice_4,pv_practice_4,practice,,,o,10,pv_practice_1_4,pv_practice_1,1,True,True,True,1343.0
357,14,PV,pv_practice_2,pv_practice_2,practice,,,vi,12,pv_practice_1_2,pv_practice_1,3,False,False,True,1247.0
358,14,PV,pv_practice_3,pv_practice_3,practice,,,o,14,pv_practice_1_3,pv_practice_1,3,False,False,True,1776.0
359,14,WM,aud_practice_4,aud_practice_4,practice,1,,au,22,aud_practice_1_4,aud_practice_1,b,Different,Different,True,1362.0
360,14,WM,aud_practice_2,aud_practice_2,practice,3,,au,28,aud_practice_1_2,aud_practice_1,c,Same,Different,False,649.0
361,14,WM,aud_practice_3,aud_practice_3,practice,3,,au,34,aud_practice_1_3,aud_practice_1,b,Different,Same,False,1188.0
362,14,WM,aud_practice_1,aud_practice_1,practice,1,,au,40,aud_practice_1_1,aud_practice_1,b,Different,Same,False,570.0
363,14,WM,vis_practice_1,vis_practice_1,practice,1,,vi,48,vis_practice_1_1,vis_practice_1,c,Same,Same,True,1860.0
364,14,WM,vis_practice_4,vis_practice_4,practice,1,,vi,54,vis_practice_1_4,vis_practice_1,b,Different,Different,True,746.0
365,14,WM,vis_practice_2,vis_practice_2,practice,3,,vi,64,vis_practice_1_2,vis_practice_1,b,Different,Different,True,1721.0
366,14,WM,vis_practice_3,vis_practice_3,practice,3,,vi,74,vis_practice_1_3,vis_practice_1,c,Same,Same,True,3281.0
367,14,PV,p_1,p_1,practice,,,au,80,1_0,1,1,True,False,False,1617.0
368,14,WM,p_1,p_1,practice,1,,au,82,1_0,1,b,Different,Same,False,1131.0
369,14,PV,p_2,p_2,practice,,,o,85,1_1,1,1,True,True,True,1464.0
370,14,WM,p_2,p_2,practice,3,,au,87,1_1,1,b,Different,Different,True,1611.0
371,14,PV,p_3,p_3,practice,,,o,90,1_2,1,1,True,True,True,1026.0
372,14,WM,p_3,p_3,practice,1,,vi,92,1_2,1,b,Different,Different,True,469.0
373,14,PV,p_4,p_4,practice,,,vi,97,1_3,1,1,True,False,False,970.0
374,14,WM,p_4,p_4,practice,3,,vi,101,1_3,1,b,Different,Same,False,1031.0
375,14,PV,78,78,filler,,,vi,102,1_0,1,3,False,False,True,2053.0
376,14,PV,129,129,filler,,,au,105,2_0,2,3,False,False,True,1517.0
377,14,PV,71,71,critical,,,au,110,3_0,3,1,True,True,True,2031.0
378,14,WM,71,71,critical,3,,au,112,3_0,3,c,Same,Same,True,1594.0
379,15,PV,pv_practice_1,pv_practice_1,practice,,,au,8,pv_practice_1_1,pv_practice_1,1,True,True,True,3332.0
380,15,PV,pv_practice_2,pv_practice_2,practice,,,vi,10,pv_practice_1_2,pv_practice_1,1,True,False,False,3213.0
381,15,PV,pv_practice_3,pv_practice_3,practice,,,o,12,pv_practice_1_3,pv_practice_1,1,True,False,False,6008.0
382,15,PV,pv_practice_4,pv_practice_4,practice,,,o,14,pv_practice_1_4,pv_practice_1,3,False,True,False,663.0
383,15,WM,vis_practice_4,vis_practice_4,practice,1,,vi,22,vis_practice_1_4,vis_practice_1,b,Different,Different,True,2550.0
384,15,WM,vis_practice_2,vis_practice_2,practice,3,,vi,32,vis_practice_1_2,vis_practice_1,b,Different,Different,True,895.0
385,15,WM,vis_practice_1,vis_practice_1,practice,1,,vi,38,vis_practice_1_1,vis_practice_1,c,Same,Same,True,16.0
386,15,WM,vis_practice_3,vis_practice_3,practice,3,,vi,48,vis_practice_1_3,vis_practice_1,b,Different,Same,False,451.0
387,15,WM,aud_practice_4,aud_practice_4,practice,1,,au,56,aud_practice_1_4,aud_practice_1,b,Different,Different,True,1981.0
388,15,WM,aud_practice_2,aud_practice_2,practice,3,,au,62,aud_practice_1_2,aud_practice_1,c,Same,Different,False,2831.0
389,15,WM,aud_practice_3,aud_practice_3,practice,3,,au,68,aud_practice_1_3,aud_practice_1,b,Different,Same,False,1179.0
390,15,WM,aud_practice_1,aud_practice_1,practice,1,,au,74,aud_practice_1_1,aud_practice_1,b,Different,Same,False,32.0
391,15,PV,p_1,p_1,practice,,,au,80,1_0,1,3,False,False,True,4948.0
392,15,WM,p_1,p_1,practice,1,,au,82,1_0,1,b,Different,Same,False,2493.0
393,15,PV,p_2,p_2,practice,,,o,85,1_1,1,3,False,True,False,1264.0
394,15,WM,p_2,p_2,practice,3,,au,87,1_1,1,b,Different,Different,True,14018.0
395,15,PV,p_3,p_3,practice,,,o,90,1_2,1,3,False,True,False,2774.0
396,15,WM,p_3,p_3,practice,1,,vi,92,1_2,1,b,Different,Different,True,6097.0
397,15,PV,p_4,p_4,practice,,,vi,97,1_3,1,3,False,False,True,173.0
398,15,WM,p_4,p_4,practice,3,,vi,101,1_3,1,b,Different,Same,False,97.0
399,15,PV,112,112,filler,,,vi,102,1_0,1,3,False,False,True,981.0
400,15,PV,141,141,filler,,,au,107,1_1,1,3,False,False,True,1232.0
401,15,WM,141,141,filler,3,,vi,111,1_1,1,b,Different,Different,True,3366.0
402,15,PV,121,121,filler,,,vi,114,1_2,1,3,False,False,True,6626.0
403,15,WM,121,121,filler,3,,au,116,1_2,1,b,Different,Different,True,2282.0
404,15,PV,175,175,filler,,,F,119,1_3,1,3,False,True,False,510.0
405,15,WM,175,175,filler,3,,au,121,1_3,1,b,Different,Different,True,446.0
406,15,PV,84,84,filler,,,vi,124,1_4,1,1,True,False,False,798.0
407,15,WM,84,84,filler,1,,vi,126,1_4,1,b,Different,Different,True,224.0
408,15,PV,15,15,critical,,,vi,129,1_5,1,3,False,True,False,335.0
409,15,WM,15,15,critical,1,,vi,131,1_5,1,b,Different,Same,False,4.0
410,15,PV,42,42,critical,,,au,132,1_6,1,3,False,True,False,287.0
411,15,PV,72,72,critical,,,au,135,1_7,1,3,False,True,False,9.0
412,15,WM,72,72,critical,1,,au,137,1_7,1,b,Different,Same,False,218.0
413,15,PV,58,58,critical,,,au,138,1_8,1,3,False,True,False,94.0
414,15,PV,26,26,critical,,,vi,143,1_9,1,3,False,True,False,3.0
415,15,WM,26,26,critical,3,,vi,147,1_9,1,b,Different,Same,False,171.0
416,15,PV,35,35,critical,,,vi,150,1_10,1,3,False,True,False,116.0
417,15,WM,35,35,critical,1,,au,152,1_10,1,b,Different,Same,False,33.0
418,15,PV,23,23,critical,,,vi,153,1_11,1,3,False,True,False,2478.0
419,15,PV,160,160,filler,,,F,156,1_12,1,3,False,False,True,122.0
420,15,WM,160,160,filler,1,,au,158,1_12,1,b,Different,Same,False,283.0
421,15,PV,75,75,filler,,,vi,159,1_13,1,1,True,False,False,161.0
422,15,PV,146,146,filler,,,F,160,1_14,1,3,False,False,True,52.0
423,15,PV,10,10,critical,,,vi,163,1_15,1,1,True,True,True,190.0
424,15,WM,10,10,critical,3,,au,165,1_15,1,b,Different,Same,False,129.0
425,15,PV,48,48,critical,,,au,168,1_16,1,1,True,True,True,2.0
426,15,WM,48,48,critical,3,,au,170,1_16,1,b,Different,Same,False,714.0
427,15,PV,98,98,filler,,,au,173,1_17,1,1,True,False,False,128.0
428,15,WM,98,98,filler,1,,au,175,1_17,1,b,Different,Different,True,195.0
429,15,PV,110,110,filler,,,vi,176,1_18,1,3,False,False,True,2.0
430,15,PV,164,164,filler,,,F,179,1_19,1,1,True,False,False,457.0
431,15,WM,164,164,filler,3,,au,181,1_19,1,b,Different,Same,False,335.0
432,15,PV,53,53,critical,,,au,184,1_20,1,1,True,True,True,320.0
433,15,WM,53,53,critical,1,,vi,186,1_20,1,b,Different,Same,False,273.0
434,15,PV,180,180,filler,,,F,189,1_21,1,1,True,True,True,299.0
435,15,WM,180,180,filler,1,,vi,191,1_21,1,b,Different,Different,True,331.0
436,15,PV,105,105,filler,,,au,194,1_22,1,1,True,False,False,57.0
437,15,WM,105,105,filler,3,,au,196,1_22,1,b,Different,Different,True,450.0
438,15,PV,149,149,filler,,,F,199,1_23,1,1,True,False,False,181.0
439,15,WM,149,149,filler,1,,vi,201,1_23,1,b,Different,Same,False,407.0
440,15,PV,92,92,filler,,,au,202,1_24,1,1,True,False,False,1.0
441,15,PV,183,183,filler,,,F,207,1_25,1,3,False,True,False,452.0
442,15,WM,183,183,filler,3,,vi,211,1_25,1,b,Different,Different,True,260.0
443,15,PV,18,18,critical,,,vi,214,1_26,1,3,False,True,False,626.0
444,15,WM,18,18,critical,1,,vi,216,1_26,1,b,Different,Same,False,205.0
445,15,PV,109,109,filler,,,vi,217,1_27,1,1,True,False,False,1318.0
446,15,PV,122,122,filler,,,vi,220,1_28,1,3,False,False,True,6877.0
447,15,WM,122,122,filler,3,,au,222,1_28,1,b,Different,Different,True,1530.0
448,15,PV,64,64,critical,,,au,227,1_29,1,3,False,True,False,782.0
449,15,WM,64,64,critical,3,,vi,231,1_29,1,b,Different,Same,False,34.0
450,15,PV,90,90,filler,,,vi,236,1_30,1,3,False,False,True,28.0
451,15,WM,90,90,filler,3,,vi,240,1_30,1,b,Different,Different,True,186.0
452,15,PV,50,50,critical,,,au,243,1_31,1,3,False,True,False,375.0
453,15,WM,50,50,critical,1,,vi,245,1_31,1,b,Different,Same,False,7.0
454,15,PV,61,61,critical,,,au,250,1_32,1,3,False,True,False,141.0
455,15,WM,61,61,critical,3,,vi,254,1_32,1,c,Same,Same,True,448.0
456,15,PV,106,106,filler,,,au,257,1_33,1,3,False,False,True,827.0
457,15,WM,106,106,filler,3,,au,259,1_33,1,c,Same,Different,False,249.0
458,15,PV,101,101,filler,,,au,262,1_34,1,3,False,False,True,138.0
459,15,WM,101,101,filler,1,,au,264,1_34,1,c,Same,Different,False,1606.0
460,15,PV,136,136,filler,,,au,267,1_35,1,1,True,False,False,123.0
461,15,WM,136,136,filler,1,,vi,269,1_35,1,c,Same,Different,False,4.0
462,15,PV,87,87,filler,,,vi,274,1_36,1,1,True,False,False,3.0
463,15,WM,87,87,filler,3,,vi,278,1_36,1,c,Same,Different,False,49.0
464,15,PV,40,40,critical,,,au,279,1_37,1,1,True,True,True,341.0
465,15,PV,19,19,critical,,,vi,280,1_38,1,3,False,True,False,152.0
466,15,PV,155,155,filler,,,F,281,1_39,1,1,True,False,False,160.0
467,15,PV,77,77,filler,,,vi,282,1_40,1,1,True,False,False,8.0
468,15,PV,178,178,filler,,,F,283,1_41,1,1,True,True,True,96.0
469,15,PV,36,36,critical,,,vi,286,1_42,1,3,False,True,False,127.0
470,15,WM,36,36,critical,1,,au,288,1_42,1,b,Different,Same,False,25.0
471,15,PV,27,27,critical,,,vi,293,1_43,1,1,True,True,True,121.0
472,15,WM,27,27,critical,3,,vi,297,1_43,1,b,Different,Same,False,131.0
473,15,PV,154,154,filler,,,F,302,1_44,1,1,True,False,False,314.0
474,15,WM,154,154,filler,3,,vi,306,1_44,1,c,Same,Same,True,15.0
475,15,PV,44,44,critical,,,au,309,1_45,1,3,False,True,False,159.0
476,15,WM,44,44,critical,3,,au,311,1_45,1,b,Different,Same,False,32.0
477,15,PV,172,172,filler,,,F,314,1_46,1,3,False,True,False,328.0
478,15,WM,172,172,filler,1,,au,316,1_46,1,c,Same,Different,False,418.0
479,15,PV,73,73,filler,,,vi,317,1_47,1,3,False,False,True,8677.0
480,15,PV,81,81,filler,,,vi,320,1_48,1,3,False,False,True,75.0
481,15,WM,81,81,filler,1,,vi,322,1_48,1,c,Same,Different,False,146.0
482,15,PV,133,133,filler,,,au,325,1_49,1,3,False,False,True,18.0
483,15,WM,133,133,filler,1,,vi,327,1_49,1,c,Same,Different,False,8331.0
484,15,PV,97,97,filler,,,au,330,1_50,1,1,True,False,False,469.0
485,15,WM,97,97,filler,1,,au,332,1_50,1,c,Same,Different,False,8724.0
486,15,PV,67,67,critical,,,au,335,1_51,1,1,True,True,True,1910.0
487,15,WM,67,67,critical,1,,au,337,1_51,1,c,Same,Same,True,1747.0
488,15,PV,169,169,filler,,,F,338,1_52,1,3,False,True,False,993.0
489,15,PV,8,8,critical,,,vi,341,1_53,1,1,True,True,True,233.0
490,15,WM,8,8,critical,3,,au,343,1_53,1,c,Same,Same,True,194.0
491,15,PV,3,3,critical,,,vi,344,1_54,1,3,False,True,False,134.0
492,15,PV,57,57,critical,,,au,345,1_55,1,3,False,True,False,182.0
493,15,PV,5,5,critical,,,vi,346,1_56,1,3,False,True,False,385.0
494,15,PV,116,116,filler,,,vi,349,1_57,1,1,True,False,False,74.0
495,15,WM,116,116,filler,1,,au,351,1_57,1,c,Same,Different,False,156.0
496,15,PV,140,140,filler,,,au,356,1_58,1,3,False,False,True,558.0
497,15,WM,140,140,filler,3,,vi,360,1_58,1,b,Different,Different,True,5384.0
498,15,PV,127,127,filler,,,au,361,1_59,1,3,False,False,True,258.0
499,15,PV,173,173,filler,,,F,366,2_0,2,1,True,True,True,3198.0
500,15,WM,173,173,filler,1,,au,368,2_0,2,b,Different,Different,True,1236.0
501,15,PV,55,55,critical,,,au,369,2_1,2,1,True,True,True,17125.0
502,15,PV,147,147,filler,,,F,370,2_2,2,1,True,False,False,898.0
503,15,PV,123,123,filler,,,vi,373,2_3,2,3,False,False,True,190.0
504,15,WM,123,123,filler,3,,au,375,2_3,2,b,Different,Different,True,1298.0
505,15,PV,93,93,filler,,,au,376,2_4,2,1,True,False,False,302.0
506,15,PV,166,166,filler,,,F,379,2_5,2,1,True,True,True,197.0
507,15,WM,166,166,filler,1,,au,381,2_5,2,b,Different,Different,True,369.0
508,15,PV,117,117,filler,,,vi,384,2_6,2,1,True,False,False,122.0
509,15,WM,117,117,filler,1,,au,386,2_6,2,b,Different,Different,True,462.0
510,15,PV,168,168,filler,,,F,389,2_7,2,1,True,True,True,530.0
511,15,WM,168,168,filler,1,,au,391,2_7,2,b,Different,Different,True,56.0
512,15,PV,52,52,critical,,,au,394,2_8,2,1,True,True,True,529.0
513,15,WM,52,52,critical,1,,vi,396,2_8,2,b,Different,Same,False,129.0
514,15,PV,177,177,filler,,,F,397,2_9,2,1,True,True,True,86.0
515,15,PV,134,134,filler,,,au,400,2_10,2,1,True,False,False,110.0
516,15,WM,134,134,filler,1,,vi,402,2_10,2,b,Different,Different,True,95.0
517,15,PV,11,11,critical,,,vi,405,2_11,2,1,True,True,True,396.0
518,15,WM,11,11,critical,3,,au,407,2_11,2,b,Different,Same,False,38.0
519,15,PV,34,34,critical,,,vi,410,2_12,2,3,False,True,False,450.0
520,15,WM,34,34,critical,1,,au,412,2_12,2,b,Different,Same,False,167.0
521,15,PV,16,16,critical,,,vi,415,2_13,2,1,True,True,True,55.0
522,15,WM,16,16,critical,1,,vi,417,2_13,2,b,Different,Same,False,112.0
523,15,PV,13,13,critical,,,vi,420,2_14,2,1,True,True,True,323.0
524,15,WM,13,13,critical,1,,vi,422,2_14,2,b,Different,Same,False,79.0
525,15,PV,139,139,filler,,,au,427,2_15,2,3,False,False,True,430.0
526,15,WM,139,139,filler,3,,vi,431,2_15,2,b,Different,Different,True,258.0
527,15,PV,145,145,filler,,,F,432,2_16,2,3,False,False,True,89.0
528,15,PV,115,115,filler,,,vi,435,2_17,2,1,True,False,False,5.0
529,15,WM,115,115,filler,1,,au,437,2_17,2,b,Different,Different,True,83.0
530,15,PV,137,137,filler,,,au,440,2_18,2,3,False,False,True,29.0
531,15,WM,137,137,filler,1,,vi,442,2_18,2,b,Different,Different,True,166.0
532,15,PV,30,30,critical,,,vi,447,2_19,2,1,True,True,True,382.0
533,15,WM,30,30,critical,3,,vi,451,2_19,2,b,Different,Same,False,1016.0
534,15,PV,150,150,filler,,,F,454,2_20,2,3,False,False,True,187.0
535,15,WM,150,150,filler,1,,vi,456,2_20,2,b,Different,Same,False,412.0
536,15,PV,45,45,critical,,,au,459,2_21,2,1,True,True,True,19.0
537,15,WM,45,45,critical,3,,au,461,2_21,2,b,Different,Same,False,1127.0
538,15,PV,2,2,critical,,,vi,462,2_22,2,1,True,True,True,399.0
539,15,PV,129,129,filler,,,au,463,2_23,2,1,True,False,False,123.0
540,15,PV,104,104,filler,,,au,466,2_24,2,1,True,False,False,273.0
541,15,WM,104,104,filler,3,,au,468,2_24,2,c,Same,Different,False,469.0
542,15,PV,143,143,filler,,,au,473,2_25,2,1,True,False,False,23.0
543,15,WM,143,143,filler,3,,vi,477,2_25,2,b,Different,Different,True,350.0
544,15,PV,7,7,critical,,,vi,480,2_26,2,1,True,True,True,488.0
545,15,WM,7,7,critical,3,,au,482,2_26,2,b,Different,Same,False,667.0
546,15,PV,56,56,critical,,,au,483,2_27,2,1,True,True,True,145.0
547,15,PV,32,32,critical,,,vi,486,2_28,2,1,True,True,True,668.0
548,15,WM,32,32,critical,1,,au,488,2_28,2,b,Different,Same,False,391.0
549,15,PV,163,163,filler,,,F,491,2_29,2,1,True,False,False,263.0
550,15,WM,163,163,filler,3,,au,493,2_29,2,b,Different,Same,False,334.0
551,15,PV,151,151,filler,,,F,496,2_30,2,1,True,False,False,128.0
552,15,WM,151,151,filler,1,,vi,498,2_30,2,b,Different,Same,False,161.0
553,15,PV,89,89,filler,,,vi,503,2_31,2,1,True,False,False,78.0
554,15,WM,89,89,filler,3,,vi,507,2_31,2,b,Different,Different,True,544.0
555,15,PV,24,24,critical,,,vi,508,2_32,2,3,False,True,False,113.0
556,15,PV,78,78,filler,,,vi,509,2_33,2,1,True,False,False,597.0
557,15,PV,128,128,filler,,,au,510,2_34,2,3,False,False,True,208.0
558,15,PV,86,86,filler,,,vi,515,2_35,2,1,True,False,False,258.0
559,15,WM,86,86,filler,3,,vi,519,2_35,2,b,Different,Different,True,21.0
560,15,PV,68,68,critical,,,au,522,2_36,2,1,True,True,True,152.0
561,15,WM,68,68,critical,1,,au,524,2_36,2,b,Different,Same,False,323.0
562,15,PV,71,71,critical,,,au,527,2_37,2,1,True,True,True,68.0
563,15,WM,71,71,critical,1,,au,529,2_37,2,b,Different,Same,False,312.0
564,15,PV,63,63,critical,,,au,534,2_38,2,1,True,True,True,22.0
565,15,WM,63,63,critical,3,,vi,538,2_38,2,b,Different,Same,False,514.0
566,15,PV,28,28,critical,,,vi,543,2_39,2,1,True,True,True,9993.0
567,15,WM,28,28,critical,3,,vi,547,2_39,2,b,Different,Same,False,290.0
568,15,PV,47,47,critical,,,au,550,2_40,2,1,True,True,True,5.0
569,15,WM,47,47,critical,3,,au,552,2_40,2,b,Different,Same,False,18.0
570,15,PV,182,182,filler,,,F,555,2_41,2,1,True,True,True,345.0
571,15,WM,182,182,filler,1,,vi,557,2_41,2,b,Different,Different,True,313.0
572,15,PV,85,85,filler,,,vi,562,2_42,2,3,False,False,True,193.0
573,15,WM,85,85,filler,3,,vi,566,2_42,2,b,Different,Different,True,73.0
574,15,PV,74,74,filler,,,vi,567,2_43,2,1,True,False,False,6.0
575,15,PV,39,39,critical,,,au,568,2_44,2,1,True,True,True,294.0
576,15,PV,41,41,critical,,,au,569,2_45,2,3,False,True,False,152.0
577,15,PV,157,157,filler,,,F,570,2_46,2,1,True,False,False,255.0
578,15,PV,111,111,filler,,,vi,571,2_47,2,3,False,False,True,413.0
579,15,PV,54,54,critical,,,au,574,2_48,2,3,False,True,False,198.0
580,15,WM,54,54,critical,1,,vi,576,2_48,2,b,Different,Same,False,10.0
581,15,PV,165,165,filler,,,F,577,2_49,2,1,True,True,True,258.0
582,15,PV,91,91,filler,,,au,578,2_50,2,1,True,False,False,254.0
583,15,PV,179,179,filler,,,F,581,2_51,2,3,False,True,False,139.0
584,15,WM,179,179,filler,1,,vi,583,2_51,2,b,Different,Different,True,539.0
585,15,PV,156,156,filler,,,F,584,2_52,2,3,False,False,True,2377.0
586,15,PV,62,62,critical,,,au,589,2_53,2,1,True,True,True,545.0
587,15,WM,62,62,critical,3,,vi,593,2_53,2,c,Same,Same,True,633.0
588,15,PV,22,22,critical,,,vi,594,2_54,2,3,False,True,False,1107.0
589,15,PV,126,126,filler,,,vi,597,2_55,2,1,True,False,False,554.0
590,15,WM,126,126,filler,3,,au,599,2_55,2,b,Different,Different,True,50.0
591,15,PV,120,120,filler,,,vi,602,2_56,2,3,False,False,True,225.0
592,15,WM,120,120,filler,1,,au,604,2_56,2,b,Different,Different,True,975.0
593,15,PV,103,103,filler,,,au,607,2_57,2,1,True,False,False,44.0
594,15,WM,103,103,filler,3,,au,609,2_57,2,b,Different,Different,True,188.0
595,15,PV,95,95,filler,,,au,610,2_58,2,3,False,False,True,340.0
596,15,PV,4,4,critical,,,vi,611,2_59,2,3,False,True,False,644.0
597,15,PV,107,107,filler,,,au,614,2_60,2,1,True,False,False,248.0
598,15,WM,107,107,filler,3,,au,616,2_60,2,b,Different,Different,True,139.0
599,15,PV,83,83,filler,,,vi,619,2_61,2,3,False,False,True,130.0
600,15,WM,83,83,filler,1,,vi,621,2_61,2,b,Different,Different,True,23.0
601,15,PV,31,31,critical,,,vi,626,3_0,3,3,False,True,False,779.0
602,15,WM,31,31,critical,1,,au,628,3_0,3,b,Different,Same,False,236.0
603,15,PV,159,159,filler,,,F,631,3_1,3,1,True,False,False,48.0
604,15,WM,159,159,filler,1,,au,633,3_1,3,b,Different,Same,False,228.0
605,15,PV,114,114,filler,,,vi,634,3_2,3,1,True,False,False,2.0
606,15,PV,181,181,filler,,,F,637,3_3,3,3,False,True,False,26.0
607,15,WM,181,181,filler,1,,vi,639,3_3,3,b,Different,Different,True,173.0
608,15,PV,12,12,critical,,,vi,642,3_4,3,3,False,True,False,117.0
609,15,WM,12,12,critical,3,,au,644,3_4,3,b,Different,Same,False,2133.0
610,15,PV,21,21,critical,,,vi,645,3_5,3,3,False,True,False,94.0
611,15,PV,130,130,filler,,,au,646,3_6,3,3,False,False,True,94.0
612,15,PV,158,158,filler,,,F,647,3_7,3,1,True,False,False,57.0
613,15,PV,37,37,critical,,,au,648,3_8,3,3,False,True,False,47.0
614,15,PV,6,6,critical,,,vi,649,3_9,3,3,False,True,False,49.0
615,15,PV,14,14,critical,,,vi,652,3_10,3,1,True,True,True,375.0
616,15,WM,14,14,critical,1,,vi,654,3_10,3,c,Same,Same,True,1.0
617,15,PV,170,170,filler,,,F,655,3_11,3,1,True,True,True,164.0
618,15,PV,119,119,filler,,,vi,658,3_12,3,1,True,False,False,201.0
619,15,WM,119,119,filler,1,,au,660,3_12,3,c,Same,Different,False,165.0
620,15,PV,60,60,critical,,,au,661,3_13,3,1,True,True,True,141.0
621,15,PV,118,118,filler,,,vi,664,3_14,3,1,True,False,False,141.0
622,15,WM,118,118,filler,1,,au,666,3_14,3,b,Different,Different,True,70.0
623,15,PV,102,102,filler,,,au,669,3_15,3,3,False,False,True,67.0
624,15,WM,102,102,filler,1,,au,671,3_15,3,c,Same,Different,False,228.0
625,15,PV,153,153,filler,,,F,676,3_16,3,1,True,False,False,88.0
626,15,WM,153,153,filler,3,,vi,680,3_16,3,b,Different,Same,False,364.0
627,15,PV,96,96,filler,,,au,681,3_17,3,1,True,False,False,473.0
628,15,PV,100,100,filler,,,au,684,3_18,3,3,False,False,True,16.0
629,15,WM,100,100,filler,1,,au,686,3_18,3,b,Different,Different,True,237.0
630,15,PV,148,148,filler,,,F,687,3_19,3,3,False,False,True,46.0
631,15,PV,66,66,critical,,,au,692,3_20,3,1,True,True,True,41.0
632,15,WM,66,66,critical,3,,vi,696,3_20,3,c,Same,Same,True,215.0
633,15,PV,69,69,critical,,,au,699,3_21,3,1,True,True,True,241.0
634,15,WM,69,69,critical,1,,au,701,3_21,3,b,Different,Same,False,4.0
635,15,PV,132,132,filler,,,au,702,3_22,3,1,True,False,False,338.0
636,15,PV,49,49,critical,,,au,705,3_23,3,3,False,True,False,264.0
637,15,WM,49,49,critical,1,,vi,707,3_23,3,b,Different,Same,False,149.0
638,15,PV,51,51,critical,,,au,710,3_24,3,3,False,True,False,429.0
639,15,WM,51,51,critical,1,,vi,712,3_24,3,b,Different,Same,False,149.0
640,15,PV,76,76,filler,,,vi,713,3_25,3,3,False,False,True,479.0
641,15,PV,184,184,filler,,,F,718,3_26,3,3,False,True,False,132.0
642,15,WM,184,184,filler,3,,vi,722,3_26,3,b,Different,Different,True,214.0
643,15,PV,38,38,critical,,,au,723,3_27,3,1,True,True,True,384.0
644,15,PV,138,138,filler,,,au,726,3_28,3,3,False,False,True,185.0
645,15,WM,138,138,filler,1,,vi,728,3_28,3,c,Same,Different,False,4.0
646,15,PV,171,171,filler,,,F,731,3_29,3,3,False,True,False,534.0
647,15,WM,171,171,filler,3,,au,733,3_29,3,c,Same,Different,False,208.0
648,15,PV,161,161,filler,,,F,736,3_30,3,3,False,False,True,41.0
649,15,WM,161,161,filler,1,,au,738,3_30,3,b,Different,Same,False,203.0
650,15,PV,135,135,filler,,,au,741,3_31,3,3,False,False,True,261.0
651,15,WM,135,135,filler,1,,vi,743,3_31,3,c,Same,Different,False,206.0
652,15,PV,94,94,filler,,,au,744,3_32,3,3,False,False,True,119.0
653,15,PV,167,167,filler,,,F,747,3_33,3,1,True,True,True,445.0
654,15,WM,167,167,filler,1,,au,749,3_33,3,c,Same,Different,False,243.0
655,15,PV,144,144,filler,,,au,754,3_34,3,3,False,False,True,299.0
656,15,WM,144,144,filler,3,,vi,758,3_34,3,b,Different,Different,True,104.0
657,15,PV,9,9,critical,,,vi,761,3_35,3,1,True,True,True,78.0
658,15,WM,9,9,critical,3,,au,763,3_35,3,c,Same,Same,True,634.0
659,15,PV,125,125,filler,,,vi,766,3_36,3,1,True,False,False,427.0
660,15,WM,125,125,filler,3,,au,768,3_36,3,b,Different,Different,True,379.0
661,15,PV,29,29,critical,,,vi,773,3_37,3,3,False,True,False,568.0
662,15,WM,29,29,critical,3,,vi,777,3_37,3,c,Same,Same,True,73.0
663,15,PV,43,43,critical,,,au,780,3_38,3,3,False,True,False,119.0
664,15,WM,43,43,critical,3,,au,782,3_38,3,c,Same,Same,True,415.0
665,15,PV,20,20,critical,,,vi,783,3_39,3,3,False,True,False,421.0
666,15,PV,65,65,critical,,,au,788,3_40,3,3,False,True,False,529.0
667,15,WM,65,65,critical,3,,vi,792,3_40,3,c,Same,Same,True,475.0
668,15,PV,131,131,filler,,,au,793,3_41,3,1,True,False,False,560.0
669,15,PV,33,33,critical,,,vi,796,3_42,3,1,True,True,True,87.0
670,15,WM,33,33,critical,1,,au,798,3_42,3,c,Same,Same,True,43.0
671,15,PV,1,1,critical,,,vi,799,3_43,3,3,False,True,False,44.0
672,15,PV,162,162,filler,,,F,802,3_44,3,1,True,False,False,337.0
673,15,WM,162,162,filler,3,,au,804,3_44,3,c,Same,Same,True,23.0
674,15,PV,174,174,filler,,,F,807,3_45,3,1,True,True,True,116.0
675,15,WM,174,174,filler,3,,au,809,3_45,3,c,Same,Different,False,253.0
676,15,PV,70,70,critical,,,au,812,3_46,3,3,False,True,False,60.0
677,15,WM,70,70,critical,1,,au,814,3_46,3,c,Same,Same,True,110.0
678,15,PV,17,17,critical,,,vi,817,3_47,3,3,False,True,False,147.0
679,15,WM,17,17,critical,1,,vi,819,3_47,3,b,Different,Same,False,195.0
680,15,PV,108,108,filler,,,au,822,3_48,3,3,False,False,True,115.0
681,15,WM,108,108,filler,3,,au,824,3_48,3,b,Different,Different,True,353.0
682,15,PV,82,82,filler,,,vi,827,3_49,3,3,False,False,True,508.0
683,15,WM,82,82,filler,1,,vi,829,3_49,3,c,Same,Different,False,603.0
684,15,PV,25,25,critical,,,vi,834,3_50,3,3,False,True,False,678.0
685,15,WM,25,25,critical,3,,vi,838,3_50,3,b,Different,Same,False,93.0
686,15,PV,79,79,filler,,,vi,841,3_51,3,3,False,False,True,81.0
687,15,WM,79,79,filler,1,,vi,843,3_51,3,b,Different,Different,True,15.0
688,15,PV,124,124,filler,,,vi,846,3_52,3,3,False,False,True,28.0
689,15,WM,124,124,filler,3,,au,848,3_52,3,b,Different,Different,True,50.0
690,15,PV,176,176,filler,,,F,851,3_53,3,1,True,True,True,249.0
691,15,WM,176,176,filler,3,,au,853,3_53,3,b,Different,Different,True,291.0
692,15,PV,152,152,filler,,,F,858,3_54,3,3,False,False,True,190.0
693,15,WM,152,152,filler,3,,vi,862,3_54,3,c,Same,Same,True,165.0
694,15,PV,59,59,critical,,,au,863,3_55,3,3,False,True,False,305.0
695,15,PV,142,142,filler,,,au,868,3_56,3,3,False,False,True,217.0
696,15,WM,142,142,filler,3,,vi,872,3_56,3,b,Different,Different,True,250.0
697,15,PV,80,80,filler,,,vi,875,3_57,3,1,True,False,False,316.0
698,15,WM,80,80,filler,1,,vi,877,3_57,3,b,Different,Different,True,80.0
699,15,PV,113,113,filler,,,vi,878,3_58,3,3,False,False,True,81.0
700,15,PV,88,88,filler,,,vi,883,3_59,3,1,True,False,False,4248.0
701,15,WM,88,88,filler,3,,vi,887,3_59,3,b,Different,Different,True,207.0
702,15,PV,99,99,filler,,,au,890,3_60,3,1,True,False,False,200.0
703,15,WM,99,99,filler,1,,au,892,3_60,3,c,Same,Different,False,25876.0
704,15,PV,46,46,critical,,,au,895,3_61,3,3,False,True,False,215.0
705,15,WM,46,46,critical,3,,au,897,3_61,3,b,Different,Same,False,154.0
706,17,PV,pv_practice_2,pv_practice_2,practice,,,vi,9,pv_practice_1_2,pv_practice_1,3,False,False,True,2901.0
707,17,PV,pv_practice_3,pv_practice_3,practice,,,o,11,pv_practice_1_3,pv_practice_1,3,False,False,True,1751.0
708,17,PV,pv_practice_1,pv_practice_1,practice,,,au,13,pv_practice_1_1,pv_practice_1,1,True,True,True,1177.0
709,17,PV,pv_practice_4,pv_practice_4,practice,,,o,15,pv_practice_1_4,pv_practice_1,1,True,True,True,1168.0
710,17,WM,aud_practice_1,aud_practice_1,practice,1,,au,23,aud_practice_1_1,aud_practice_1,b,Different,Same,False,1081.0
711,17,WM,aud_practice_2,aud_practice_2,practice,3,,au,29,aud_practice_1_2,aud_practice_1,b,Different,Different,True,2094.0
712,17,WM,aud_practice_4,aud_practice_4,practice,1,,au,35,aud_practice_1_4,aud_practice_1,b,Different,Different,True,565.0
713,17,WM,aud_practice_3,aud_practice_3,practice,3,,au,41,aud_practice_1_3,aud_practice_1,c,Same,Same,True,99.0
714,17,WM,vis_practice_1,vis_practice_1,practice,1,,vi,49,vis_practice_1_1,vis_practice_1,c,Same,Same,True,922.0
715,17,WM,vis_practice_2,vis_practice_2,practice,3,,vi,59,vis_practice_1_2,vis_practice_1,b,Different,Different,True,412.0
716,17,WM,vis_practice_4,vis_practice_4,practice,1,,vi,65,vis_practice_1_4,vis_practice_1,c,Same,Different,False,656.0
717,17,WM,vis_practice_3,vis_practice_3,practice,3,,vi,75,vis_practice_1_3,vis_practice_1,c,Same,Same,True,96.0
718,17,PV,p_1,p_1,practice,,,au,81,1_0,1,3,False,False,True,3227.0
719,17,WM,p_1,p_1,practice,1,,au,83,1_0,1,c,Same,Same,True,1678.0
720,17,PV,p_2,p_2,practice,,,o,86,1_1,1,1,True,True,True,1955.0
721,17,WM,p_2,p_2,practice,3,,au,88,1_1,1,b,Different,Different,True,528.0
722,17,PV,p_3,p_3,practice,,,o,91,1_2,1,1,True,True,True,1336.0
723,17,WM,p_3,p_3,practice,1,,vi,93,1_2,1,b,Different,Different,True,796.0
724,17,PV,p_4,p_4,practice,,,vi,98,1_3,1,3,False,False,True,1554.0
725,17,WM,p_4,p_4,practice,3,,vi,102,1_3,1,c,Same,Same,True,1473.0
726,17,PV,171,171,filler,,,F,105,1_0,1,1,True,True,True,1394.0
727,17,WM,171,171,filler,3,,au,107,1_0,1,b,Different,Different,True,657.0
728,17,PV,4,4,critical,,,vi,108,1_1,1,1,True,True,True,1663.0
729,17,PV,139,139,filler,,,au,113,1_2,1,3,False,False,True,2496.0
730,17,WM,139,139,filler,3,,vi,117,1_2,1,b,Different,Different,True,1438.0
731,17,PV,35,35,critical,,,vi,120,1_3,1,1,True,True,True,1609.0
732,17,WM,35,35,critical,3,,au,122,1_3,1,c,Same,Same,True,568.0
733,17,PV,121,121,filler,,,vi,125,1_4,1,3,False,False,True,2539.0
734,17,WM,121,121,filler,3,,au,127,1_4,1,c,Same,Different,False,1222.0
735,17,PV,164,164,filler,,,F,130,1_5,1,3,False,False,True,1456.0
736,17,WM,164,164,filler,3,,au,132,1_5,1,c,Same,Same,True,640.0
737,17,PV,3,3,critical,,,vi,133,1_6,1,1,True,True,True,2301.0
738,17,PV,48,48,critical,,,au,136,1_7,1,1,True,True,True,1516.0
739,17,WM,48,48,critical,1,,vi,138,1_7,1,c,Same,Same,True,994.0
740,17,PV,82,82,filler,,,vi,141,1_8,1,3,False,False,True,2822.0
741,17,WM,82,82,filler,1,,vi,143,1_8,1,b,Different,Different,True,1008.0
742,17,PV,70,70,critical,,,au,146,1_9,1,1,True,True,True,1375.0
743,17,WM,70,70,critical,3,,au,148,1_9,1,c,Same,Same,True,684.0
744,17,PV,92,92,filler,,,au,149,1_10,1,3,False,False,True,2538.0
745,17,PV,62,62,critical,,,au,152,1_11,1,1,True,True,True,1180.0
746,17,WM,62,62,critical,1,,au,154,1_11,1,c,Same,Same,True,835.0
747,17,PV,23,23,critical,,,vi,155,1_12,1,1,True,True,True,1695.0
748,17,PV,138,138,filler,,,au,158,1_13,1,3,False,False,True,6403.0
749,17,WM,138,138,filler,1,,vi,160,1_13,1,b,Different,Different,True,912.0
750,17,PV,109,109,filler,,,vi,161,1_14,1,3,False,False,True,1726.0
751,17,PV,29,29,critical,,,vi,164,1_15,1,1,True,True,True,2274.0
752,17,WM,29,29,critical,1,,au,166,1_15,1,c,Same,Same,True,715.0
753,17,PV,132,132,filler,,,au,167,1_16,1,3,False,False,True,2094.0
754,17,PV,151,151,filler,,,F,170,1_17,1,3,False,False,True,2923.0
755,17,WM,151,151,filler,1,,vi,172,1_17,1,c,Same,Same,True,765.0
756,17,PV,71,71,critical,,,au,175,1_18,1,1,True,True,True,1683.0
757,17,WM,71,71,critical,3,,au,177,1_18,1,c,Same,Same,True,799.0
758,17,PV,85,85,filler,,,vi,182,1_19,1,3,False,False,True,2306.0
759,17,WM,85,85,filler,3,,vi,186,1_19,1,b,Different,Different,True,1321.0
760,17,PV,10,10,critical,,,vi,189,1_20,1,1,True,True,True,1426.0
761,17,WM,10,10,critical,1,,vi,191,1_20,1,c,Same,Same,True,859.0
762,17,PV,17,17,critical,,,vi,196,1_21,1,1,True,True,True,1605.0
763,17,WM,17,17,critical,3,,vi,200,1_21,1,c,Same,Same,True,1432.0
764,17,PV,58,58,critical,,,au,201,1_22,1,1,True,True,True,1646.0
765,17,PV,167,167,filler,,,F,204,1_23,1,1,True,True,True,1477.0
766,17,WM,167,167,filler,1,,au,206,1_23,1,b,Different,Different,True,1067.0
767,17,PV,118,118,filler,,,vi,209,1_24,1,3,False,False,True,3243.0
768,17,WM,118,118,filler,1,,au,211,1_24,1,b,Different,Different,True,2572.0
769,17,PV,119,119,filler,,,vi,214,1_25,1,3,False,False,True,2095.0
770,17,WM,119,119,filler,1,,au,216,1_25,1,b,Different,Different,True,1007.0
771,17,PV,169,169,filler,,,F,217,1_26,1,1,True,True,True,2697.0
772,17,PV,180,180,filler,,,F,220,1_27,1,1,True,True,True,1607.0
773,17,WM,180,180,filler,1,,vi,222,1_27,1,b,Different,Different,True,646.0
774,17,PV,12,12,critical,,,vi,225,1_28,1,1,True,True,True,1161.0
775,17,WM,12,12,critical,1,,vi,227,1_28,1,c,Same,Same,True,488.0
776,17,PV,155,155,filler,,,F,228,1_29,1,3,False,False,True,2552.0
777,17,PV,50,50,critical,,,au,233,1_30,1,1,True,True,True,999.0
778,17,WM,50,50,critical,3,,vi,237,1_30,1,b,Different,Same,False,1354.0
779,17,PV,178,178,filler,,,F,238,1_31,1,1,True,True,True,1433.0
780,17,PV,30,30,critical,,,vi,241,1_32,1,1,True,True,True,1330.0
781,17,WM,30,30,critical,1,,au,243,1_32,1,c,Same,Same,True,1042.0
782,17,PV,42,42,critical,,,au,244,1_33,1,1,True,True,True,1348.0
783,17,PV,90,90,filler,,,vi,249,1_34,1,3,False,False,True,1904.0
784,17,WM,90,90,filler,3,,vi,253,1_34,1,b,Different,Different,True,21.0
785,17,PV,44,44,critical,,,au,256,1_35,1,1,True,True,True,1894.0
786,17,WM,44,44,critical,1,,vi,258,1_35,1,c,Same,Same,True,1314.0
787,17,PV,21,21,critical,,,vi,259,1_36,1,1,True,True,True,2471.0
788,17,PV,66,66,critical,,,au,262,1_37,1,1,True,True,True,1741.0
789,17,WM,66,66,critical,1,,au,264,1_37,1,c,Same,Same,True,1171.0
790,17,PV,137,137,filler,,,au,267,1_38,1,3,False,False,True,1664.0
791,17,WM,137,137,filler,1,,vi,269,1_38,1,b,Different,Different,True,754.0
792,17,PV,184,184,filler,,,F,274,1_39,1,1,True,True,True,2052.0
793,17,WM,184,184,filler,3,,vi,278,1_39,1,b,Different,Different,True,792.0
794,17,PV,110,110,filler,,,vi,279,1_40,1,3,False,False,True,4504.0
795,17,PV,108,108,filler,,,au,282,1_41,1,3,False,False,True,3235.0
796,17,WM,108,108,filler,3,,au,284,1_41,1,b,Different,Different,True,890.0
797,17,PV,15,15,critical,,,vi,289,1_42,1,1,True,True,True,1605.0
798,17,WM,15,15,critical,3,,vi,293,1_42,1,c,Same,Same,True,537.0
799,17,PV,77,77,filler,,,vi,294,1_43,1,3,False,False,True,1944.0
800,17,PV,130,130,filler,,,au,295,1_44,1,1,True,False,False,3414.0
801,17,PV,125,125,filler,,,vi,298,1_45,1,3,False,False,True,3648.0
802,17,WM,125,125,filler,3,,au,300,1_45,1,b,Different,Different,True,617.0
803,17,PV,96,96,filler,,,au,301,1_46,1,3,False,False,True,8446.0
804,17,PV,154,154,filler,,,F,306,1_47,1,3,False,False,True,1584.0
805,17,WM,154,154,filler,3,,vi,310,1_47,1,c,Same,Same,True,615.0
806,17,PV,159,159,filler,,,F,313,1_48,1,3,False,False,True,1270.0
807,17,WM,159,159,filler,1,,au,315,1_48,1,c,Same,Same,True,866.0
808,17,PV,134,134,filler,,,au,318,1_49,1,3,False,False,True,2783.0
809,17,WM,134,134,filler,1,,vi,320,1_49,1,b,Different,Different,True,1077.0
810,17,PV,36,36,critical,,,vi,323,1_50,1,1,True,True,True,1779.0
811,17,WM,36,36,critical,3,,au,325,1_50,1,c,Same,Same,True,378.0
812,17,PV,73,73,filler,,,vi,326,1_51,1,3,False,False,True,2285.0
813,17,PV,55,55,critical,,,au,327,1_52,1,1,True,True,True,1493.0
814,17,PV,97,97,filler,,,au,330,1_53,1,3,False,False,True,2708.0
815,17,WM,97,97,filler,1,,au,332,1_53,1,b,Different,Different,True,905.0
816,17,PV,145,145,filler,,,F,333,1_54,1,3,False,False,True,2022.0
817,17,PV,140,140,filler,,,au,338,1_55,1,3,False,False,True,2260.0
818,17,WM,140,140,filler,3,,vi,342,1_55,1,b,Different,Different,True,408.0
819,17,PV,41,41,critical,,,au,343,1_56,1,1,True,True,True,1795.0
820,17,PV,124,124,filler,,,vi,346,1_57,1,3,False,False,True,5998.0
821,17,WM,124,124,filler,3,,au,348,1_57,1,b,Different,Different,True,806.0
822,17,PV,101,101,filler,,,au,351,1_58,1,3,False,False,True,1953.0
823,17,WM,101,101,filler,1,,au,353,1_58,1,b,Different,Different,True,1192.0
824,17,PV,52,52,critical,,,au,358,1_59,1,1,True,True,True,1243.0
825,17,WM,52,52,critical,3,,vi,362,1_59,1,c,Same,Same,True,1294.0
826,17,PV,170,170,filler,,,F,365,2_0,2,1,True,True,True,2033.0
827,17,PV,94,94,filler,,,au,366,2_1,2,3,False,False,True,1297.0
828,17,PV,181,181,filler,,,F,369,2_2,2,1,True,True,True,1297.0
829,17,WM,181,181,filler,1,,vi,371,2_2,2,b,Different,Different,True,810.0
830,17,PV,158,158,filler,,,F,372,2_3,2,3,False,False,True,1581.0
831,17,PV,146,146,filler,,,F,373,2_4,2,3,False,False,True,1983.0
832,17,PV,99,99,filler,,,au,376,2_5,2,3,False,False,True,2999.0
833,17,WM,99,99,filler,1,,au,378,2_5,2,b,Different,Different,True,705.0
834,17,PV,147,147,filler,,,F,379,2_6,2,3,False,False,True,2741.0
835,17,PV,175,175,filler,,,F,382,2_7,2,3,False,True,False,3613.0
836,17,WM,175,175,filler,3,,au,384,2_7,2,b,Different,Different,True,840.0
837,17,PV,8,8,critical,,,vi,387,2_8,2,1,True,True,True,3239.0
838,17,WM,8,8,critical,1,,vi,389,2_8,2,c,Same,Same,True,1041.0
839,17,PV,149,149,filler,,,F,392,2_9,2,3,False,False,True,2756.0
840,17,WM,149,149,filler,1,,vi,394,2_9,2,b,Different,Same,False,2986.0
841,17,PV,79,79,filler,,,vi,397,2_10,2,3,False,False,True,2366.0
842,17,WM,79,79,filler,1,,vi,399,2_10,2,b,Different,Different,True,1755.0
843,17,PV,115,115,filler,,,vi,402,2_11,2,3,False,False,True,2299.0
844,17,WM,115,115,filler,1,,au,404,2_11,2,b,Different,Different,True,625.0
845,17,PV,31,31,critical,,,vi,407,2_12,2,1,True,True,True,1720.0
846,17,WM,31,31,critical,3,,au,409,2_12,2,c,Same,Same,True,722.0
847,17,PV,64,64,critical,,,au,412,2_13,2,1,True,True,True,1245.0
848,17,WM,64,64,critical,1,,au,414,2_13,2,c,Same,Same,True,913.0
849,17,PV,174,174,filler,,,F,417,2_14,2,1,True,True,True,1760.0
850,17,WM,174,174,filler,3,,au,419,2_14,2,b,Different,Different,True,440.0
851,17,PV,128,128,filler,,,au,420,2_15,2,3,False,False,True,1994.0
852,17,PV,46,46,critical,,,au,423,2_16,2,1,True,True,True,1309.0
853,17,WM,46,46,critical,1,,vi,425,2_16,2,c,Same,Same,True,571.0
854,17,PV,6,6,critical,,,vi,426,2_17,2,1,True,True,True,1290.0
855,17,PV,163,163,filler,,,F,429,2_18,2,3,False,False,True,1785.0
856,17,WM,163,163,filler,3,,au,431,2_18,2,c,Same,Same,True,647.0
857,17,PV,162,162,filler,,,F,434,2_19,2,3,False,False,True,2832.0
858,17,WM,162,162,filler,3,,au,436,2_19,2,c,Same,Same,True,588.0
859,17,PV,87,87,filler,,,vi,441,2_20,2,3,False,False,True,1690.0
860,17,WM,87,87,filler,3,,vi,445,2_20,2,b,Different,Different,True,794.0
861,17,PV,103,103,filler,,,au,448,2_21,2,3,False,False,True,1788.0
862,17,WM,103,103,filler,3,,au,450,2_21,2,b,Different,Different,True,508.0
863,17,PV,53,53,critical,,,au,455,2_22,2,1,True,True,True,1296.0
864,17,WM,53,53,critical,3,,vi,459,2_22,2,c,Same,Same,True,1015.0
865,17,PV,54,54,critical,,,au,464,2_23,2,1,True,True,True,1240.0
866,17,WM,54,54,critical,3,,vi,468,2_23,2,c,Same,Same,True,438.0
867,17,PV,114,114,filler,,,vi,469,2_24,2,3,False,False,True,1973.0
868,17,PV,56,56,critical,,,au,470,2_25,2,1,True,True,True,1609.0
869,17,PV,28,28,critical,,,vi,473,2_26,2,1,True,True,True,1441.0
870,17,WM,28,28,critical,1,,au,475,2_26,2,c,Same,Same,True,501.0
871,17,PV,100,100,filler,,,au,478,2_27,2,1,True,False,False,4727.0
872,17,WM,100,100,filler,1,,au,480,2_27,2,b,Different,Different,True,1124.0
873,17,PV,14,14,critical,,,vi,485,2_28,2,3,False,True,False,2330.0
874,17,WM,14,14,critical,3,,vi,489,2_28,2,b,Different,Same,False,1543.0
875,17,PV,84,84,filler,,,vi,492,2_29,2,3,False,False,True,2722.0
876,17,WM,84,84,filler,1,,vi,494,2_29,2,b,Different,Different,True,826.0
877,17,PV,144,144,filler,,,au,499,2_30,2,3,False,False,True,3307.0
878,17,WM,144,144,filler,3,,vi,503,2_30,2,b,Different,Different,True,1022.0
879,17,PV,117,117,filler,,,vi,506,2_31,2,3,False,False,True,1840.0
880,17,WM,117,117,filler,1,,au,508,2_31,2,b,Different,Different,True,1149.0
881,17,PV,86,86,filler,,,vi,513,2_32,2,3,False,False,True,1504.0
882,17,WM,86,86,filler,3,,vi,517,2_32,2,b,Different,Different,True,334.0
883,17,PV,19,19,critical,,,vi,518,2_33,2,1,True,True,True,1277.0
884,17,PV,38,38,critical,,,au,519,2_34,2,1,True,True,True,1090.0
885,17,PV,7,7,critical,,,vi,522,2_35,2,1,True,True,True,905.0
886,17,WM,7,7,critical,1,,vi,524,2_35,2,c,Same,Same,True,588.0
887,17,PV,107,107,filler,,,au,527,2_36,2,3,False,False,True,1963.0
888,17,WM,107,107,filler,3,,au,529,2_36,2,b,Different,Different,True,511.0
889,17,PV,129,129,filler,,,au,530,2_37,2,3,False,False,True,1640.0
890,17,PV,136,136,filler,,,au,533,2_38,2,3,False,False,True,1467.0
891,17,WM,136,136,filler,1,,vi,535,2_38,2,b,Different,Different,True,397.0
892,17,PV,72,72,critical,,,au,538,2_39,2,1,True,True,True,1427.0
893,17,WM,72,72,critical,3,,au,540,2_39,2,c,Same,Same,True,464.0
894,17,PV,43,43,critical,,,au,543,2_40,2,1,True,True,True,1036.0
895,17,WM,43,43,critical,1,,vi,545,2_40,2,c,Same,Same,True,813.0
896,17,PV,74,74,filler,,,vi,546,2_41,2,3,False,False,True,1502.0
897,17,PV,95,95,filler,,,au,547,2_42,2,3,False,False,True,1354.0
898,17,PV,5,5,critical,,,vi,548,2_43,2,1,True,True,True,1557.0
899,17,PV,57,57,critical,,,au,549,2_44,2,1,True,True,True,1318.0
900,17,PV,75,75,filler,,,vi,550,2_45,2,3,False,False,True,1201.0
901,17,PV,135,135,filler,,,au,553,2_46,2,3,False,False,True,1497.0
902,17,WM,135,135,filler,1,,vi,555,2_46,2,b,Different,Different,True,2780.0
903,17,PV,32,32,critical,,,vi,558,2_47,2,1,True,True,True,1197.0
904,17,WM,32,32,critical,3,,au,560,2_47,2,c,Same,Same,True,710.0
905,17,PV,80,80,filler,,,vi,563,2_48,2,3,False,False,True,2713.0
906,17,WM,80,80,filler,1,,vi,565,2_48,2,c,Same,Different,False,3653.0
907,17,PV,22,22,critical,,,vi,566,2_49,2,1,True,True,True,1213.0
908,17,PV,161,161,filler,,,F,569,2_50,2,3,False,False,True,1447.0
909,17,WM,161,161,filler,1,,au,571,2_50,2,c,Same,Same,True,813.0
910,17,PV,26,26,critical,,,vi,574,2_51,2,1,True,True,True,2026.0
911,17,WM,26,26,critical,1,,au,576,2_51,2,c,Same,Same,True,696.0
912,17,PV,165,165,filler,,,F,577,2_52,2,1,True,True,True,1036.0
913,17,PV,176,176,filler,,,F,580,2_53,2,1,True,True,True,1296.0
914,17,WM,176,176,filler,3,,au,582,2_53,2,c,Same,Different,False,349.0
915,17,PV,177,177,filler,,,F,583,2_54,2,1,True,True,True,1133.0
916,17,PV,67,67,critical,,,au,586,2_55,2,1,True,True,True,971.0
917,17,WM,67,67,critical,3,,au,588,2_55,2,c,Same,Same,True,332.0
918,17,PV,102,102,filler,,,au,591,2_56,2,3,False,False,True,1673.0
919,17,WM,102,102,filler,1,,au,593,2_56,2,b,Different,Different,True,1120.0
920,17,PV,120,120,filler,,,vi,596,2_57,2,3,False,False,True,1842.0
921,17,WM,120,120,filler,1,,au,598,2_57,2,b,Different,Different,True,821.0
922,17,PV,40,40,critical,,,au,599,2_58,2,1,True,True,True,1277.0
923,17,PV,16,16,critical,,,vi,604,2_59,2,1,True,True,True,1234.0
924,17,WM,16,16,critical,3,,vi,608,2_59,2,c,Same,Same,True,411.0
925,17,PV,65,65,critical,,,au,611,2_60,2,1,True,True,True,1142.0
926,17,WM,65,65,critical,1,,au,613,2_60,2,c,Same,Same,True,438.0
927,17,PV,106,106,filler,,,au,616,2_61,2,3,False,False,True,1788.0
928,17,WM,106,106,filler,3,,au,618,2_61,2,b,Different,Different,True,607.0
929,17,PV,179,179,filler,,,F,623,3_0,3,1,True,True,True,1487.0
930,17,WM,179,179,filler,1,,vi,625,3_0,3,b,Different,Different,True,464.0
931,17,PV,63,63,critical,,,au,628,3_1,3,1,True,True,True,2271.0
932,17,WM,63,63,critical,1,,au,630,3_1,3,c,Same,Same,True,666.0
933,17,PV,89,89,filler,,,vi,635,3_2,3,3,False,False,True,1045.0
934,17,WM,89,89,filler,3,,vi,639,3_2,3,b,Different,Different,True,542.0
935,17,PV,13,13,critical,,,vi,644,3_3,3,1,True,True,True,1661.0
936,17,WM,13,13,critical,3,,vi,648,3_3,3,c,Same,Same,True,112.0
937,17,PV,49,49,critical,,,au,653,3_4,3,1,True,True,True,1241.0
938,17,WM,49,49,critical,3,,vi,657,3_4,3,c,Same,Same,True,377.0
939,17,PV,11,11,critical,,,vi,660,3_5,3,1,True,True,True,1085.0
940,17,WM,11,11,critical,1,,vi,662,3_5,3,c,Same,Same,True,439.0
941,17,PV,133,133,filler,,,au,665,3_6,3,3,False,False,True,6150.0
942,17,WM,133,133,filler,1,,vi,667,3_6,3,b,Different,Different,True,1801.0
943,17,PV,33,33,critical,,,vi,670,3_7,3,1,True,True,True,1227.0
944,17,WM,33,33,critical,3,,au,672,3_7,3,c,Same,Same,True,1060.0
945,17,PV,83,83,filler,,,vi,675,3_8,3,1,True,False,False,5212.0
946,17,WM,83,83,filler,1,,vi,677,3_8,3,b,Different,Different,True,3985.0
947,17,PV,9,9,critical,,,vi,680,3_9,3,1,True,True,True,1268.0
948,17,WM,9,9,critical,1,,vi,682,3_9,3,c,Same,Same,True,385.0
949,17,PV,24,24,critical,,,vi,683,3_10,3,1,True,True,True,979.0
950,17,PV,148,148,filler,,,F,684,3_11,3,3,False,False,True,1507.0
951,17,PV,88,88,filler,,,vi,689,3_12,3,3,False,False,True,1589.0
952,17,WM,88,88,filler,3,,vi,693,3_12,3,b,Different,Different,True,806.0
953,17,PV,37,37,critical,,,au,694,3_13,3,1,True,True,True,1456.0
954,17,PV,172,172,filler,,,F,697,3_14,3,1,True,True,True,2402.0
955,17,WM,172,172,filler,1,,au,699,3_14,3,b,Different,Different,True,668.0
956,17,PV,157,157,filler,,,F,700,3_15,3,3,False,False,True,1584.0
957,17,PV,18,18,critical,,,vi,705,3_16,3,1,True,True,True,1552.0
958,17,WM,18,18,critical,3,,vi,709,3_16,3,c,Same,Same,True,2451.0
959,17,PV,60,60,critical,,,au,710,3_17,3,1,True,True,True,1058.0
960,17,PV,111,111,filler,,,vi,711,3_18,3,3,False,False,True,2410.0
961,17,PV,143,143,filler,,,au,716,3_19,3,3,False,False,True,1495.0
962,17,WM,143,143,filler,3,,vi,720,3_19,3,b,Different,Different,True,789.0
963,17,PV,39,39,critical,,,au,721,3_20,3,1,True,True,True,1112.0
964,17,PV,69,69,critical,,,au,724,3_21,3,1,True,True,True,1299.0
965,17,WM,69,69,critical,3,,au,726,3_21,3,c,Same,Same,True,640.0
966,17,PV,91,91,filler,,,au,727,3_22,3,3,False,False,True,3367.0
967,17,PV,182,182,filler,,,F,730,3_23,3,3,False,True,False,2680.0
968,17,WM,182,182,filler,1,,vi,732,3_23,3,b,Different,Different,True,1166.0
969,17,PV,81,81,filler,,,vi,735,3_24,3,3,False,False,True,1212.0
970,17,WM,81,81,filler,1,,vi,737,3_24,3,b,Different,Different,True,1294.0
971,17,PV,122,122,filler,,,vi,740,3_25,3,3,False,False,True,1141.0
972,17,WM,122,122,filler,3,,au,742,3_25,3,b,Different,Different,True,594.0
973,17,PV,113,113,filler,,,vi,743,3_26,3,3,False,False,True,1992.0
974,17,PV,116,116,filler,,,vi,746,3_27,3,3,False,False,True,2565.0
975,17,WM,116,116,filler,1,,au,748,3_27,3,b,Different,Different,True,568.0
976,17,PV,68,68,critical,,,au,751,3_28,3,1,True,True,True,1236.0
977,17,WM,68,68,critical,3,,au,753,3_28,3,c,Same,Same,True,411.0
978,17,PV,173,173,filler,,,F,756,3_29,3,1,True,True,True,1541.0
979,17,WM,173,173,filler,1,,au,758,3_29,3,b,Different,Different,True,254.0
980,17,PV,2,2,critical,,,vi,759,3_30,3,1,True,True,True,975.0
981,17,PV,1,1,critical,,,vi,760,3_31,3,1,True,True,True,975.0
982,17,PV,34,34,critical,,,vi,763,3_32,3,1,True,True,True,1239.0
983,17,WM,34,34,critical,3,,au,765,3_32,3,c,Same,Same,True,1589.0
984,17,PV,160,160,filler,,,F,768,3_33,3,3,False,False,True,2914.0
985,17,WM,160,160,filler,1,,au,770,3_33,3,c,Same,Same,True,704.0
986,17,PV,153,153,filler,,,F,775,3_34,3,3,False,False,True,4606.0
987,17,WM,153,153,filler,3,,vi,779,3_34,3,c,Same,Same,True,572.0
988,17,PV,166,166,filler,,,F,782,3_35,3,1,True,True,True,3310.0
989,17,WM,166,166,filler,1,,au,784,3_35,3,b,Different,Different,True,732.0
990,17,PV,183,183,filler,,,F,789,3_36,3,1,True,True,True,1173.0
991,17,WM,183,183,filler,3,,vi,793,3_36,3,b,Different,Different,True,475.0
992,17,PV,47,47,critical,,,au,796,3_37,3,3,False,True,False,2918.0
993,17,WM,47,47,critical,1,,vi,798,3_37,3,c,Same,Same,True,903.0
994,17,PV,152,152,filler,,,F,803,3_38,3,3,False,False,True,2218.0
995,17,WM,152,152,filler,3,,vi,807,3_38,3,b,Different,Same,False,796.0
996,17,PV,78,78,filler,,,vi,808,3_39,3,1,True,False,False,2772.0
997,17,PV,76,76,filler,,,vi,809,3_40,3,3,False,False,True,1133.0
998,17,PV,93,93,filler,,,au,810,3_41,3,3,False,False,True,2254.0
999,17,PV,126,126,filler,,,vi,813,3_42,3,3,False,False,True,1235.0
1000,17,WM,126,126,filler,3,,au,815,3_42,3,b,Different,Different,True,1664.0
1001,17,PV,142,142,filler,,,au,820,3_43,3,3,False,False,True,1778.0
1002,17,WM,142,142,filler,3,,vi,824,3_43,3,b,Different,Different,True,1031.0
1003,17,PV,127,127,filler,,,au,825,3_44,3,3,False,False,True,2154.0
1004,17,PV,105,105,filler,,,au,828,3_45,3,3,False,False,True,3430.0
1005,17,WM,105,105,filler,3,,au,830,3_45,3,b,Different,Different,True,416.0
1006,17,PV,25,25,critical,,,vi,833,3_46,3,1,True,True,True,1019.0
1007,17,WM,25,25,critical,1,,au,835,3_46,3,c,Same,Same,True,600.0
1008,17,PV,141,141,filler,,,au,840,3_47,3,3,False,False,True,1533.0
1009,17,WM,141,141,filler,3,,vi,844,3_47,3,b,Different,Different,True,683.0
1010,17,PV,168,168,filler,,,F,847,3_48,3,1,True,True,True,1746.0
1011,17,WM,168,168,filler,1,,au,849,3_48,3,b,Different,Different,True,1163.0
1012,17,PV,59,59,critical,,,au,850,3_49,3,1,True,True,True,1888.0
1013,17,PV,98,98,filler,,,au,853,3_50,3,3,False,False,True,2764.0
1014,17,WM,98,98,filler,1,,au,855,3_50,3,b,Different,Different,True,431.0
1015,17,PV,104,104,filler,,,au,858,3_51,3,3,False,False,True,1416.0
1016,17,WM,104,104,filler,3,,au,860,3_51,3,b,Different,Different,True,607.0
1017,17,PV,27,27,critical,,,vi,863,3_52,3,1,True,True,True,1258.0
1018,17,WM,27,27,critical,1,,au,865,3_52,3,c,Same,Same,True,592.0
1019,17,PV,150,150,filler,,,F,868,3_53,3,3,False,False,True,2588.0
1020,17,WM,150,150,filler,1,,vi,870,3_53,3,c,Same,Same,True,463.0
1021,17,PV,112,112,filler,,,vi,871,3_54,3,3,False,False,True,1207.0
1022,17,PV,61,61,critical,,,au,874,3_55,3,1,True,True,True,1190.0
1023,17,WM,61,61,critical,1,,au,876,3_55,3,c,Same,Same,True,1149.0
1024,17,PV,131,131,filler,,,au,877,3_56,3,3,False,False,True,2146.0
1025,17,PV,156,156,filler,,,F,878,3_57,3,1,True,False,False,2694.0
1026,17,PV,51,51,critical,,,au,883,3_58,3,1,True,True,True,1670.0
1027,17,WM,51,51,critical,3,,vi,887,3_58,3,c,Same,Same,True,795.0
1028,17,PV,123,123,filler,,,vi,890,3_59,3,1,True,False,False,1645.0
1029,17,WM,123,123,filler,3,,au,892,3_59,3,b,Different,Different,True,947.0
1030,17,PV,45,45,critical,,,au,895,3_60,3,1,True,True,True,1222.0
1031,17,WM,45,45,critical,1,,vi,897,3_60,3,c,Same,Same,True,592.0
1032,17,PV,20,20,critical,,,vi,898,3_61,3,1,True,True,True,1380.0
1033,18,PV,pv_practice_3,pv_practice_3,practice,,,o,8,pv_practice_1_3,pv_practice_1,3,False,False,True,3842.0
1034,18,PV,pv_practice_2,pv_practice_2,practice,,,vi,10,pv_practice_1_2,pv_practice_1,1,True,False,False,4998.0
1035,18,PV,pv_practice_1,pv_practice_1,practice,,,au,12,pv_practice_1_1,pv_practice_1,1,True,True,True,5309.0
1036,18,PV,pv_practice_4,pv_practice_4,practice,,,o,14,pv_practice_1_4,pv_practice_1,1,True,True,True,1398.0
1037,18,WM,vis_practice_4,vis_practice_4,practice,1,,vi,22,vis_practice_1_4,vis_practice_1,b,Different,Different,True,2939.0
1038,18,WM,vis_practice_3,vis_practice_3,practice,3,,vi,32,vis_practice_1_3,vis_practice_1,b,Different,Same,False,867.0
1039,18,WM,vis_practice_1,vis_practice_1,practice,1,,vi,38,vis_practice_1_1,vis_practice_1,c,Same,Same,True,989.0
1040,18,WM,vis_practice_2,vis_practice_2,practice,3,,vi,48,vis_practice_1_2,vis_practice_1,b,Different,Different,True,955.0
1041,18,WM,aud_practice_4,aud_practice_4,practice,1,,au,56,aud_practice_1_4,aud_practice_1,b,Different,Different,True,1115.0
1042,18,WM,aud_practice_1,aud_practice_1,practice,1,,au,62,aud_practice_1_1,aud_practice_1,c,Same,Same,True,2077.0
1043,18,WM,aud_practice_3,aud_practice_3,practice,3,,au,68,aud_practice_1_3,aud_practice_1,c,Same,Same,True,1108.0
1044,18,WM,aud_practice_2,aud_practice_2,practice,3,,au,74,aud_practice_1_2,aud_practice_1,b,Different,Different,True,1072.0
1045,18,PV,p_1,p_1,practice,,,au,80,1_0,1,3,False,False,True,5393.0
1046,18,WM,p_1,p_1,practice,1,,au,82,1_0,1,c,Same,Same,True,2273.0
1047,18,PV,p_2,p_2,practice,,,o,85,1_1,1,1,True,True,True,2312.0
1048,18,WM,p_2,p_2,practice,3,,au,87,1_1,1,b,Different,Different,True,938.0
1049,18,PV,p_3,p_3,practice,,,o,90,1_2,1,1,True,True,True,2176.0
1050,18,WM,p_3,p_3,practice,1,,vi,92,1_2,1,b,Different,Different,True,793.0
1051,18,PV,p_4,p_4,practice,,,vi,97,1_3,1,3,False,False,True,2292.0
1052,18,WM,p_4,p_4,practice,3,,vi,101,1_3,1,c,Same,Same,True,968.0
1053,18,PV,75,75,filler,,,vi,102,1_0,1,1,True,False,False,2138.0
1054,18,PV,123,123,filler,,,vi,105,1_1,1,1,True,False,False,1401.0
1055,18,WM,123,123,filler,3,,au,107,1_1,1,b,Different,Different,True,708.0
1056,18,PV,24,24,critical,,,vi,108,1_2,1,1,True,True,True,1959.0
1057,18,PV,22,22,critical,,,vi,109,1_3,1,1,True,True,True,2829.0
1058,18,PV,27,27,critical,,,vi,114,1_4,1,1,True,True,True,1553.0
1059,18,WM,27,27,critical,3,,vi,118,1_4,1,c,Same,Same,True,784.0
1060,18,PV,80,80,filler,,,vi,121,1_5,1,3,False,False,True,4295.0
1061,18,WM,80,80,filler,1,,vi,123,1_5,1,b,Different,Different,True,2667.0
1062,18,PV,146,146,filler,,,F,124,1_6,1,1,True,False,False,13366.0
1063,18,PV,44,44,critical,,,au,127,1_7,1,1,True,True,True,1592.0
1064,18,WM,44,44,critical,3,,au,129,1_7,1,c,Same,Same,True,1391.0
1065,18,PV,1,1,critical,,,vi,130,1_8,1,1,True,True,True,1277.0
1066,18,PV,42,42,critical,,,au,131,1_9,1,1,True,True,True,997.0
1067,18,PV,62,62,critical,,,au,136,1_10,1,1,True,True,True,1322.0
1068,18,WM,62,62,critical,3,,vi,140,1_10,1,b,Different,Same,False,1014.0
1069,18,PV,180,180,filler,,,F,143,1_11,1,1,True,True,True,1633.0
1070,18,WM,180,180,filler,1,,vi,145,1_11,1,b,Different,Different,True,849.0
1071,18,PV,94,94,filler,,,au,146,1_12,1,3,False,False,True,1661.0
1072,18,PV,63,63,critical,,,au,151,1_13,1,1,True,True,True,1573.0
1073,18,WM,63,63,critical,3,,vi,155,1_13,1,b,Different,Same,False,1290.0
1074,18,PV,153,153,filler,,,F,160,1_14,1,3,False,False,True,2609.0
1075,18,WM,153,153,filler,3,,vi,164,1_14,1,c,Same,Same,True,1154.0
1076,18,PV,141,141,filler,,,au,169,1_15,1,1,True,False,False,2455.0
1077,18,WM,141,141,filler,3,,vi,173,1_15,1,b,Different,Different,True,548.0
1078,18,PV,164,164,filler,,,F,176,1_16,1,1,True,False,False,4581.0
1079,18,WM,164,164,filler,3,,au,178,1_16,1,b,Different,Same,False,5069.0
1080,18,PV,171,171,filler,,,F,181,1_17,1,1,True,True,True,2007.0
1081,18,WM,171,171,filler,3,,au,183,1_17,1,b,Different,Different,True,855.0
1082,18,PV,134,134,filler,,,au,186,1_18,1,3,False,False,True,1721.0
1083,18,WM,134,134,filler,1,,vi,188,1_18,1,b,Different,Different,True,1026.0
1084,18,PV,119,119,filler,,,vi,191,1_19,1,3,False,False,True,3682.0
1085,18,WM,119,119,filler,1,,au,193,1_19,1,b,Different,Different,True,735.0
1086,18,PV,99,99,filler,,,au,196,1_20,1,1,True,False,False,2328.0
1087,18,WM,99,99,filler,1,,au,198,1_20,1,b,Different,Different,True,1237.0
1088,18,PV,135,135,filler,,,au,201,1_21,1,3,False,False,True,3241.0
1089,18,WM,135,135,filler,1,,vi,203,1_21,1,b,Different,Different,True,1829.0
1090,18,PV,32,32,critical,,,vi,206,1_22,1,1,True,True,True,1532.0
1091,18,WM,32,32,critical,1,,au,208,1_22,1,c,Same,Same,True,1189.0
1092,18,PV,72,72,critical,,,au,211,1_23,1,1,True,True,True,3235.0
1093,18,WM,72,72,critical,1,,au,213,1_23,1,c,Same,Same,True,1040.0
1094,18,PV,116,116,filler,,,vi,216,1_24,1,3,False,False,True,1733.0
1095,18,WM,116,116,filler,1,,au,218,1_24,1,b,Different,Different,True,926.0
1096,18,PV,126,126,filler,,,vi,221,1_25,1,3,False,False,True,1848.0
1097,18,WM,126,126,filler,3,,au,223,1_25,1,b,Different,Different,True,881.0
1098,18,PV,41,41,critical,,,au,224,1_26,1,1,True,True,True,1514.0
1099,18,PV,129,129,filler,,,au,225,1_27,1,3,False,False,True,1686.0
1100,18,PV,59,59,critical,,,au,226,1_28,1,1,True,True,True,1178.0
1101,18,PV,184,184,filler,,,F,231,1_29,1,3,False,True,False,3413.0
1102,18,WM,184,184,filler,3,,vi,235,1_29,1,b,Different,Different,True,1023.0
1103,18,PV,122,122,filler,,,vi,238,1_30,1,3,False,False,True,1797.0
1104,18,WM,122,122,filler,3,,au,240,1_30,1,b,Different,Different,True,2369.0
1105,18,PV,151,151,filler,,,F,243,1_31,1,3,False,False,True,17325.0
1106,18,WM,151,151,filler,1,,vi,245,1_31,1,b,Different,Same,False,2929.0
1107,18,PV,156,156,filler,,,F,246,1_32,1,1,True,False,False,2008.0
1108,18,PV,47,47,critical,,,au,249,1_33,1,3,False,True,False,2177.0
1109,18,WM,47,47,critical,3,,au,251,1_33,1,c,Same,Same,True,2144.0
1110,18,PV,69,69,critical,,,au,254,1_34,1,3,False,True,False,2821.0
1111,18,WM,69,69,critical,1,,au,256,1_34,1,c,Same,Same,True,1300.0
1112,18,PV,89,89,filler,,,vi,261,1_35,1,3,False,False,True,2068.0
1113,18,WM,89,89,filler,3,,vi,265,1_35,1,b,Different,Different,True,10343.0
1114,18,PV,112,112,filler,,,vi,266,1_36,1,3,False,False,True,1877.0
1115,18,PV,31,31,critical,,,vi,269,1_37,1,3,False,True,False,5410.0
1116,18,WM,31,31,critical,1,,au,271,1_37,1,c,Same,Same,True,532.0
1117,18,PV,53,53,critical,,,au,274,1_38,1,1,True,True,True,1363.0
1118,18,WM,53,53,critical,1,,vi,276,1_38,1,c,Same,Same,True,542.0
1119,18,PV,120,120,filler,,,vi,279,1_39,1,3,False,False,True,1415.0
1120,18,WM,120,120,filler,1,,au,281,1_39,1,b,Different,Different,True,1765.0
1121,18,PV,107,107,filler,,,au,284,1_40,1,3,False,False,True,2012.0
1122,18,WM,107,107,filler,3,,au,286,1_40,1,b,Different,Different,True,1934.0
1123,18,PV,93,93,filler,,,au,287,1_41,1,1,True,False,False,3091.0
1124,18,PV,160,160,filler,,,F,290,1_42,1,3,False,False,True,2410.0
1125,18,WM,160,160,filler,1,,au,292,1_42,1,c,Same,Same,True,1634.0
1126,18,PV,11,11,critical,,,vi,295,1_43,1,1,True,True,True,1493.0
1127,18,WM,11,11,critical,3,,au,297,1_43,1,c,Same,Same,True,613.0
1128,18,PV,6,6,critical,,,vi,298,1_44,1,1,True,True,True,1326.0
1129,18,PV,177,177,filler,,,F,299,1_45,1,1,True,True,True,1137.0
1130,18,PV,55,55,critical,,,au,300,1_46,1,3,False,True,False,2545.0
1131,18,PV,14,14,critical,,,vi,303,1_47,1,1,True,True,True,4717.0
1132,18,WM,14,14,critical,1,,vi,305,1_47,1,b,Different,Same,False,2301.0
1133,18,PV,142,142,filler,,,au,310,1_48,1,3,False,False,True,1702.0
1134,18,WM,142,142,filler,3,,vi,314,1_48,1,b,Different,Different,True,880.0
1135,18,PV,167,167,filler,,,F,317,1_49,1,1,True,True,True,1488.0
1136,18,WM,167,167,filler,1,,au,319,1_49,1,b,Different,Different,True,1891.0
1137,18,PV,90,90,filler,,,vi,324,1_50,1,3,False,False,True,2243.0
1138,18,WM,90,90,filler,3,,vi,328,1_50,1,c,Same,Different,False,1202.0
1139,18,PV,13,13,critical,,,vi,331,1_51,1,1,True,True,True,5008.0
1140,18,WM,13,13,critical,1,,vi,333,1_51,1,c,Same,Same,True,1022.0
1141,18,PV,114,114,filler,,,vi,334,1_52,1,1,True,False,False,2499.0
1142,18,PV,132,132,filler,,,au,335,1_53,1,3,False,False,True,2043.0
1143,18,PV,170,170,filler,,,F,336,1_54,1,1,True,True,True,1486.0
1144,18,PV,127,127,filler,,,au,337,1_55,1,3,False,False,True,2502.0
1145,18,PV,9,9,critical,,,vi,340,1_56,1,1,True,True,True,1648.0
1146,18,WM,9,9,critical,3,,au,342,1_56,1,c,Same,Same,True,1153.0
1147,18,PV,54,54,critical,,,au,345,1_57,1,1,True,True,True,1083.0
1148,18,WM,54,54,critical,1,,vi,347,1_57,1,c,Same,Same,True,1235.0
1149,18,PV,29,29,critical,,,vi,352,1_58,1,1,True,True,True,1419.0
1150,18,WM,29,29,critical,3,,vi,356,1_58,1,c,Same,Same,True,579.0
1151,18,PV,81,81,filler,,,vi,359,1_59,1,3,False,False,True,1330.0
1152,18,WM,81,81,filler,1,,vi,361,1_59,1,b,Different,Different,True,935.0
1153,18,PV,147,147,filler,,,F,364,2_0,2,3,False,False,True,2385.0
1154,18,PV,30,30,critical,,,vi,369,2_1,2,1,True,True,True,1483.0
1155,18,WM,30,30,critical,3,,vi,373,2_1,2,c,Same,Same,True,2049.0
1156,18,PV,36,36,critical,,,vi,376,2_2,2,1,True,True,True,2370.0
1157,18,WM,36,36,critical,1,,au,378,2_2,2,c,Same,Same,True,1060.0
1158,18,PV,4,4,critical,,,vi,379,2_3,2,1,True,True,True,1200.0
1159,18,PV,182,182,filler,,,F,382,2_4,2,1,True,True,True,1532.0
1160,18,WM,182,182,filler,1,,vi,384,2_4,2,b,Different,Different,True,1070.0
1161,18,PV,140,140,filler,,,au,389,2_5,2,3,False,False,True,2647.0
1162,18,WM,140,140,filler,3,,vi,393,2_5,2,b,Different,Different,True,726.0
1163,18,PV,105,105,filler,,,au,396,2_6,2,1,True,False,False,1539.0
1164,18,WM,105,105,filler,3,,au,398,2_6,2,b,Different,Different,True,1219.0
1165,18,PV,78,78,filler,,,vi,399,2_7,2,1,True,False,False,1837.0
1166,18,PV,61,61,critical,,,au,404,2_8,2,1,True,True,True,1800.0
1167,18,WM,61,61,critical,3,,vi,408,2_8,2,b,Different,Same,False,1716.0
1168,18,PV,154,154,filler,,,F,413,2_9,2,3,False,False,True,1253.0
1169,18,WM,154,154,filler,3,,vi,417,2_9,2,c,Same,Same,True,392.0
1170,18,PV,85,85,filler,,,vi,422,2_10,2,3,False,False,True,1751.0
1171,18,WM,85,85,filler,3,,vi,426,2_10,2,b,Different,Different,True,420.0
1172,18,PV,161,161,filler,,,F,429,2_11,2,3,False,False,True,1737.0
1173,18,WM,161,161,filler,1,,au,431,2_11,2,c,Same,Same,True,920.0
1174,18,PV,64,64,critical,,,au,436,2_12,2,1,True,True,True,1615.0
1175,18,WM,64,64,critical,3,,vi,440,2_12,2,b,Different,Same,False,1175.0
1176,18,PV,104,104,filler,,,au,443,2_13,2,3,False,False,True,1835.0
1177,18,WM,104,104,filler,3,,au,445,2_13,2,c,Same,Different,False,646.0
1178,18,PV,43,43,critical,,,au,448,2_14,2,1,True,True,True,993.0
1179,18,WM,43,43,critical,3,,au,450,2_14,2,c,Same,Same,True,478.0
1180,18,PV,106,106,filler,,,au,453,2_15,2,3,False,False,True,2643.0
1181,18,WM,106,106,filler,3,,au,455,2_15,2,b,Different,Different,True,513.0
1182,18,PV,181,181,filler,,,F,458,2_16,2,1,True,True,True,1362.0
1183,18,WM,181,181,filler,1,,vi,460,2_16,2,b,Different,Different,True,1094.0
1184,18,PV,16,16,critical,,,vi,463,2_17,2,1,True,True,True,1122.0
1185,18,WM,16,16,critical,1,,vi,465,2_17,2,c,Same,Same,True,704.0
1186,18,PV,7,7,critical,,,vi,468,2_18,2,1,True,True,True,1032.0
1187,18,WM,7,7,critical,3,,au,470,2_18,2,c,Same,Same,True,457.0
1188,18,PV,79,79,filler,,,vi,473,2_19,2,3,False,False,True,2169.0
1189,18,WM,79,79,filler,1,,vi,475,2_19,2,b,Different,Different,True,943.0
1190,18,PV,118,118,filler,,,vi,478,2_20,2,3,False,False,True,1277.0
1191,18,WM,118,118,filler,1,,au,480,2_20,2,b,Different,Different,True,876.0
1192,18,PV,121,121,filler,,,vi,483,2_21,2,3,False,False,True,1163.0
1193,18,WM,121,121,filler,3,,au,485,2_21,2,b,Different,Different,True,784.0
1194,18,PV,97,97,filler,,,au,488,2_22,2,1,True,False,False,2485.0
1195,18,WM,97,97,filler,1,,au,490,2_22,2,b,Different,Different,True,5685.0
1196,18,PV,10,10,critical,,,vi,493,2_23,2,1,True,True,True,1449.0
1197,18,WM,10,10,critical,3,,au,495,2_23,2,c,Same,Same,True,284.0
1198,18,PV,67,67,critical,,,au,498,2_24,2,1,True,True,True,1870.0
1199,18,WM,67,67,critical,1,,au,500,2_24,2,c,Same,Same,True,946.0
1200,18,PV,149,149,filler,,,F,503,2_25,2,3,False,False,True,1296.0
1201,18,WM,149,149,filler,1,,vi,505,2_25,2,c,Same,Same,True,786.0
1202,18,PV,26,26,critical,,,vi,510,2_26,2,1,True,True,True,1244.0
1203,18,WM,26,26,critical,3,,vi,514,2_26,2,c,Same,Same,True,453.0
1204,18,PV,143,143,filler,,,au,519,2_27,2,1,True,False,False,1715.0
1205,18,WM,143,143,filler,3,,vi,523,2_27,2,b,Different,Different,True,1018.0
1206,18,PV,52,52,critical,,,au,526,2_28,2,1,True,True,True,1430.0
1207,18,WM,52,52,critical,1,,vi,528,2_28,2,b,Different,Same,False,1656.0
1208,18,PV,21,21,critical,,,vi,529,2_29,2,1,True,True,True,1107.0
1209,18,PV,136,136,filler,,,au,532,2_30,2,3,False,False,True,1506.0
1210,18,WM,136,136,filler,1,,vi,534,2_30,2,b,Different,Different,True,4093.0
1211,18,PV,77,77,filler,,,vi,535,2_31,2,3,False,False,True,1354.0
1212,18,PV,73,73,filler,,,vi,536,2_32,2,3,False,False,True,1494.0
1213,18,PV,70,70,critical,,,au,539,2_33,2,1,True,True,True,1637.0
1214,18,WM,70,70,critical,1,,au,541,2_33,2,c,Same,Same,True,1539.0
1215,18,PV,50,50,critical,,,au,544,2_34,2,1,True,True,True,1091.0
1216,18,WM,50,50,critical,1,,vi,546,2_34,2,c,Same,Same,True,632.0
1217,18,PV,124,124,filler,,,vi,549,2_35,2,3,False,False,True,2267.0
1218,18,WM,124,124,filler,3,,au,551,2_35,2,b,Different,Different,True,1198.0
1219,18,PV,159,159,filler,,,F,554,2_36,2,3,False,False,True,1295.0
1220,18,WM,159,159,filler,1,,au,556,2_36,2,c,Same,Same,True,798.0
1221,18,PV,19,19,critical,,,vi,557,2_37,2,1,True,True,True,1327.0
1222,18,PV,166,166,filler,,,F,560,2_38,2,1,True,True,True,1554.0
1223,18,WM,166,166,filler,1,,au,562,2_38,2,b,Different,Different,True,1597.0
1224,18,PV,113,113,filler,,,vi,563,2_39,2,3,False,False,True,1522.0
1225,18,PV,144,144,filler,,,au,568,2_40,2,3,False,False,True,1851.0
1226,18,WM,144,144,filler,3,,vi,572,2_40,2,b,Different,Different,True,1206.0
1227,18,PV,74,74,filler,,,vi,573,2_41,2,3,False,False,True,1401.0
1228,18,PV,110,110,filler,,,vi,574,2_42,2,3,False,False,True,2412.0
1229,18,PV,100,100,filler,,,au,577,2_43,2,1,True,False,False,4471.0
1230,18,WM,100,100,filler,1,,au,579,2_43,2,b,Different,Different,True,1499.0
1231,18,PV,35,35,critical,,,vi,582,2_44,2,3,False,True,False,1488.0
1232,18,WM,35,35,critical,1,,au,584,2_44,2,c,Same,Same,True,1158.0
1233,18,PV,131,131,filler,,,au,585,2_45,2,3,False,False,True,1803.0
1234,18,PV,15,15,critical,,,vi,588,2_46,2,1,True,True,True,1249.0
1235,18,WM,15,15,critical,1,,vi,590,2_46,2,c,Same,Same,True,666.0
1236,18,PV,57,57,critical,,,au,591,2_47,2,1,True,True,True,1180.0
1237,18,PV,60,60,critical,,,au,592,2_48,2,1,True,True,True,1035.0
1238,18,PV,163,163,filler,,,F,595,2_49,2,3,False,False,True,1351.0
1239,18,WM,163,163,filler,3,,au,597,2_49,2,c,Same,Same,True,331.0
1240,18,PV,174,174,filler,,,F,600,2_50,2,1,True,True,True,1237.0
1241,18,WM,174,174,filler,3,,au,602,2_50,2,c,Same,Different,False,1378.0
1242,18,PV,101,101,filler,,,au,605,2_51,2,3,False,False,True,1535.0
1243,18,WM,101,101,filler,1,,au,607,2_51,2,b,Different,Different,True,1606.0
1244,18,PV,175,175,filler,,,F,610,2_52,2,3,False,True,False,1916.0
1245,18,WM,175,175,filler,3,,au,612,2_52,2,b,Different,Different,True,368.0
1246,18,PV,176,176,filler,,,F,615,2_53,2,1,True,True,True,2350.0
1247,18,WM,176,176,filler,3,,au,617,2_53,2,c,Same,Different,False,1983.0
1248,18,PV,38,38,critical,,,au,618,2_54,2,1,True,True,True,1181.0
1249,18,PV,150,150,filler,,,F,621,2_55,2,3,False,False,True,1145.0
1250,18,WM,150,150,filler,1,,vi,623,2_55,2,c,Same,Same,True,570.0
1251,18,PV,2,2,critical,,,vi,624,2_56,2,1,True,True,True,1839.0
1252,18,PV,137,137,filler,,,au,627,2_57,2,3,False,False,True,2157.0
1253,18,WM,137,137,filler,1,,vi,629,2_57,2,b,Different,Different,True,962.0
1254,18,PV,92,92,filler,,,au,630,2_58,2,3,False,False,True,1394.0
1255,18,PV,45,45,critical,,,au,633,2_59,2,1,True,True,True,1139.0
1256,18,WM,45,45,critical,3,,au,635,2_59,2,c,Same,Same,True,356.0
1257,18,PV,165,165,filler,,,F,636,2_60,2,1,True,True,True,990.0
1258,18,PV,40,40,critical,,,au,637,2_61,2,3,False,True,False,1684.0
1259,18,PV,133,133,filler,,,au,642,3_0,3,3,False,False,True,1663.0
1260,18,WM,133,133,filler,1,,vi,644,3_0,3,c,Same,Different,False,1080.0
1261,18,PV,37,37,critical,,,au,645,3_1,3,1,True,True,True,1075.0
1262,18,PV,28,28,critical,,,vi,650,3_2,3,1,True,True,True,1433.0
1263,18,WM,28,28,critical,3,,vi,654,3_2,3,c,Same,Same,True,235.0
1264,18,PV,169,169,filler,,,F,655,3_3,3,1,True,True,True,1013.0
1265,18,PV,68,68,critical,,,au,658,3_4,3,1,True,True,True,1336.0
1266,18,WM,68,68,critical,1,,au,660,3_4,3,c,Same,Same,True,2592.0
1267,18,PV,157,157,filler,,,F,661,3_5,3,3,False,False,True,1625.0
1268,18,PV,173,173,filler,,,F,664,3_6,3,1,True,True,True,1801.0
1269,18,WM,173,173,filler,1,,au,666,3_6,3,b,Different,Different,True,656.0
1270,18,PV,58,58,critical,,,au,667,3_7,3,1,True,True,True,925.0
1271,18,PV,178,178,filler,,,F,668,3_8,3,1,True,True,True,1754.0
1272,18,PV,51,51,critical,,,au,671,3_9,3,1,True,True,True,1514.0
1273,18,WM,51,51,critical,1,,vi,673,3_9,3,c,Same,Same,True,769.0
1274,18,PV,130,130,filler,,,au,674,3_10,3,3,False,False,True,2144.0
1275,18,PV,162,162,filler,,,F,677,3_11,3,3,False,False,True,1228.0
1276,18,WM,162,162,filler,3,,au,679,3_11,3,c,Same,Same,True,337.0
1277,18,PV,172,172,filler,,,F,682,3_12,3,3,False,True,False,1701.0
1278,18,WM,172,172,filler,1,,au,684,3_12,3,b,Different,Different,True,4361.0
1279,18,PV,82,82,filler,,,vi,687,3_13,3,3,False,False,True,1616.0
1280,18,WM,82,82,filler,1,,vi,689,3_13,3,b,Different,Different,True,700.0
1281,18,PV,145,145,filler,,,F,690,3_14,3,3,False,False,True,1582.0
1282,18,PV,12,12,critical,,,vi,693,3_15,3,1,True,True,True,1041.0
1283,18,WM,12,12,critical,3,,au,695,3_15,3,c,Same,Same,True,296.0
1284,18,PV,17,17,critical,,,vi,698,3_16,3,3,False,True,False,1259.0
1285,18,WM,17,17,critical,1,,vi,700,3_16,3,c,Same,Same,True,757.0
1286,18,PV,8,8,critical,,,vi,703,3_17,3,1,True,True,True,1610.0
1287,18,WM,8,8,critical,3,,au,705,3_17,3,c,Same,Same,True,309.0
1288,18,PV,128,128,filler,,,au,706,3_18,3,3,False,False,True,1198.0
1289,18,PV,3,3,critical,,,vi,707,3_19,3,1,True,True,True,969.0
1290,18,PV,183,183,filler,,,F,712,3_20,3,1,True,True,True,2555.0
1291,18,WM,183,183,filler,3,,vi,716,3_20,3,b,Different,Different,True,343.0
1292,18,PV,84,84,filler,,,vi,719,3_21,3,3,False,False,True,1840.0
1293,18,WM,84,84,filler,1,,vi,721,3_21,3,b,Different,Different,True,963.0
1294,18,PV,179,179,filler,,,F,724,3_22,3,1,True,True,True,1198.0
1295,18,WM,179,179,filler,1,,vi,726,3_22,3,c,Same,Different,False,852.0
1296,18,PV,20,20,critical,,,vi,727,3_23,3,1,True,True,True,2590.0
1297,18,PV,71,71,critical,,,au,730,3_24,3,1,True,True,True,1249.0
1298,18,WM,71,71,critical,1,,au,732,3_24,3,c,Same,Same,True,2429.0
1299,18,PV,96,96,filler,,,au,733,3_25,3,3,False,False,True,1183.0
1300,18,PV,33,33,critical,,,vi,736,3_26,3,1,True,True,True,1134.0
1301,18,WM,33,33,critical,1,,au,738,3_26,3,c,Same,Same,True,511.0
1302,18,PV,83,83,filler,,,vi,741,3_27,3,3,False,False,True,1211.0
1303,18,WM,83,83,filler,1,,vi,743,3_27,3,c,Same,Different,False,710.0
1304,18,PV,138,138,filler,,,au,746,3_28,3,3,False,False,True,1515.0
1305,18,WM,138,138,filler,1,,vi,748,3_28,3,b,Different,Different,True,972.0
1306,18,PV,66,66,critical,,,au,753,3_29,3,1,True,True,True,1547.0
1307,18,WM,66,66,critical,3,,vi,757,3_29,3,c,Same,Same,True,403.0
1308,18,PV,65,65,critical,,,au,762,3_30,3,3,False,True,False,2527.0
1309,18,WM,65,65,critical,3,,vi,766,3_30,3,c,Same,Same,True,345.0
1310,18,PV,46,46,critical,,,au,769,3_31,3,3,False,True,False,1188.0
1311,18,WM,46,46,critical,3,,au,771,3_31,3,c,Same,Same,True,503.0
1312,18,PV,95,95,filler,,,au,772,3_32,3,3,False,False,True,1217.0
1313,18,PV,87,87,filler,,,vi,777,3_33,3,3,False,False,True,1380.0
1314,18,WM,87,87,filler,3,,vi,781,3_33,3,b,Different,Different,True,879.0
1315,18,PV,115,115,filler,,,vi,784,3_34,3,3,False,False,True,1643.0
1316,18,WM,115,115,filler,1,,au,786,3_34,3,b,Different,Different,True,2507.0
1317,18,PV,152,152,filler,,,F,791,3_35,3,3,False,False,True,1105.0
1318,18,WM,152,152,filler,3,,vi,795,3_35,3,b,Different,Same,False,1239.0
1319,18,PV,5,5,critical,,,vi,796,3_36,3,1,True,True,True,1522.0
1320,18,PV,34,34,critical,,,vi,799,3_37,3,1,True,True,True,1021.0
1321,18,WM,34,34,critical,1,,au,801,3_37,3,c,Same,Same,True,491.0
1322,18,PV,103,103,filler,,,au,804,3_38,3,3,False,False,True,1837.0
1323,18,WM,103,103,filler,3,,au,806,3_38,3,b,Different,Different,True,283.0
1324,18,PV,23,23,critical,,,vi,807,3_39,3,1,True,True,True,2353.0
1325,18,PV,102,102,filler,,,au,810,3_40,3,3,False,False,True,1327.0
1326,18,WM,102,102,filler,1,,au,812,3_40,3,b,Different,Different,True,1017.0
1327,18,PV,98,98,filler,,,au,815,3_41,3,1,True,False,False,3578.0
1328,18,WM,98,98,filler,1,,au,817,3_41,3,b,Different,Different,True,1835.0
1329,18,PV,117,117,filler,,,vi,820,3_42,3,3,False,False,True,1318.0
1330,18,WM,117,117,filler,1,,au,822,3_42,3,b,Different,Different,True,1146.0
1331,18,PV,86,86,filler,,,vi,827,3_43,3,3,False,False,True,1272.0
1332,18,WM,86,86,filler,3,,vi,831,3_43,3,b,Different,Different,True,765.0
1333,18,PV,48,48,critical,,,au,834,3_44,3,1,True,True,True,1302.0
1334,18,WM,48,48,critical,3,,au,836,3_44,3,c,Same,Same,True,208.0
1335,18,PV,91,91,filler,,,au,837,3_45,3,3,False,False,True,1329.0
1336,18,PV,158,158,filler,,,F,838,3_46,3,3,False,False,True,1579.0
1337,18,PV,49,49,critical,,,au,841,3_47,3,1,True,True,True,1802.0
1338,18,WM,49,49,critical,1,,vi,843,3_47,3,c,Same,Same,True,1325.0
1339,18,PV,111,111,filler,,,vi,844,3_48,3,1,True,False,False,1596.0
1340,18,PV,108,108,filler,,,au,847,3_49,3,3,False,False,True,1613.0
1341,18,WM,108,108,filler,3,,au,849,3_49,3,b,Different,Different,True,219.0
1342,18,PV,88,88,filler,,,vi,854,3_50,3,3,False,False,True,1966.0
1343,18,WM,88,88,filler,3,,vi,858,3_50,3,b,Different,Different,True,1155.0
1344,18,PV,18,18,critical,,,vi,861,3_51,3,1,True,True,True,1298.0
1345,18,WM,18,18,critical,1,,vi,863,3_51,3,c,Same,Same,True,636.0
1346,18,PV,148,148,filler,,,F,864,3_52,3,3,False,False,True,1295.0
1347,18,PV,25,25,critical,,,vi,869,3_53,3,1,True,True,True,1394.0
1348,18,WM,25,25,critical,3,,vi,873,3_53,3,b,Different,Same,False,451.0
1349,18,PV,76,76,filler,,,vi,874,3_54,3,3,False,False,True,1086.0
1350,18,PV,155,155,filler,,,F,875,3_55,3,1,True,False,False,1385.0
1351,18,PV,125,125,filler,,,vi,878,3_56,3,3,False,False,True,1409.0
1352,18,WM,125,125,filler,3,,au,880,3_56,3,b,Different,Different,True,587.0
1353,18,PV,39,39,critical,,,au,881,3_57,3,1,True,True,True,960.0
1354,18,PV,139,139,filler,,,au,886,3_58,3,3,False,False,True,1121.0
1355,18,WM,139,139,filler,3,,vi,890,3_58,3,b,Different,Different,True,479.0
1356,18,PV,56,56,critical,,,au,891,3_59,3,1,True,True,True,1643.0
1357,18,PV,109,109,filler,,,vi,892,3_60,3,3,False,False,True,1128.0
1358,18,PV,168,168,filler,,,F,895,3_61,3,1,True,True,True,1078.0
1359,18,WM,168,168,filler,1,,au,897,3_61,3,b,Different,Different,True,800.0
1360,20,PV,pv_practice_1,pv_practice_1,practice,,,au,8,pv_practice_1_1,pv_practice_1,1,True,True,True,1895.0
1361,20,PV,pv_practice_4,pv_practice_4,practice,,,o,10,pv_practice_1_4,pv_practice_1,1,True,True,True,1556.0
1362,20,PV,pv_practice_2,pv_practice_2,practice,,,vi,12,pv_practice_1_2,pv_practice_1,3,False,False,True,1973.0
1363,20,PV,pv_practice_3,pv_practice_3,practice,,,o,14,pv_practice_1_3,pv_practice_1,3,False,False,True,1357.0
1364,20,WM,aud_practice_2,aud_practice_2,practice,3,,au,22,aud_practice_1_2,aud_practice_1,b,Different,Different,True,1289.0
1365,20,WM,aud_practice_1,aud_practice_1,practice,1,,au,28,aud_practice_1_1,aud_practice_1,c,Same,Same,True,1409.0
1366,20,WM,aud_practice_3,aud_practice_3,practice,3,,au,34,aud_practice_1_3,aud_practice_1,c,Same,Same,True,1584.0
1367,20,WM,aud_practice_4,aud_practice_4,practice,1,,au,40,aud_practice_1_4,aud_practice_1,b,Different,Different,True,2238.0
1368,20,WM,vis_practice_4,vis_practice_4,practice,1,,vi,48,vis_practice_1_4,vis_practice_1,b,Different,Different,True,1089.0
1369,20,WM,vis_practice_3,vis_practice_3,practice,3,,vi,58,vis_practice_1_3,vis_practice_1,c,Same,Same,True,740.0
1370,20,WM,vis_practice_1,vis_practice_1,practice,1,,vi,64,vis_practice_1_1,vis_practice_1,c,Same,Same,True,605.0
1371,20,WM,vis_practice_2,vis_practice_2,practice,3,,vi,74,vis_practice_1_2,vis_practice_1,b,Different,Different,True,1829.0
1372,20,PV,p_1,p_1,practice,,,au,80,1_0,1,3,False,False,True,3547.0
1373,20,WM,p_1,p_1,practice,1,,au,82,1_0,1,c,Same,Same,True,2079.0
1374,20,PV,p_2,p_2,practice,,,o,85,1_1,1,1,True,True,True,3782.0
1375,20,WM,p_2,p_2,practice,3,,au,87,1_1,1,c,Same,Different,False,2775.0
1376,20,PV,p_3,p_3,practice,,,o,90,1_2,1,1,True,True,True,1718.0
1377,20,WM,p_3,p_3,practice,1,,vi,92,1_2,1,b,Different,Different,True,1261.0
1378,20,PV,p_4,p_4,practice,,,vi,97,1_3,1,3,False,False,True,1848.0
1379,20,WM,p_4,p_4,practice,3,,vi,101,1_3,1,c,Same,Same,True,949.0
1380,20,PV,36,36,critical,,,vi,104,1_0,1,1,True,True,True,1651.0
1381,20,WM,36,36,critical,1,,au,106,1_0,1,c,Same,Same,True,964.0
1382,20,PV,163,163,filler,,,F,109,1_1,1,3,False,False,True,1394.0
1383,20,WM,163,163,filler,3,,au,111,1_1,1,c,Same,Same,True,1016.0
1384,20,PV,100,100,filler,,,au,114,1_2,1,3,False,False,True,2624.0
1385,20,WM,100,100,filler,1,,au,116,1_2,1,b,Different,Different,True,1447.0
1386,20,PV,31,31,critical,,,vi,119,1_3,1,1,True,True,True,2105.0
1387,20,WM,31,31,critical,1,,au,121,1_3,1,c,Same,Same,True,1191.0
1388,20,PV,122,122,filler,,,vi,124,1_4,1,3,False,False,True,2265.0
1389,20,WM,122,122,filler,3,,au,126,1_4,1,b,Different,Different,True,954.0
1390,20,PV,61,61,critical,,,au,131,1_5,1,1,True,True,True,3796.0
1391,20,WM,61,61,critical,3,,vi,135,1_5,1,c,Same,Same,True,874.0
1392,20,PV,74,74,filler,,,vi,136,1_6,1,3,False,False,True,1861.0
1393,20,PV,136,136,filler,,,au,139,1_7,1,3,False,False,True,1525.0
1394,20,WM,136,136,filler,1,,vi,141,1_7,1,b,Different,Different,True,2048.0
1395,20,PV,161,161,filler,,,F,144,1_8,1,3,False,False,True,2137.0
1396,20,WM,161,161,filler,1,,au,146,1_8,1,c,Same,Same,True,868.0
1397,20,PV,93,93,filler,,,au,147,1_9,1,1,True,False,False,6857.0
1398,20,PV,21,21,critical,,,vi,148,1_10,1,1,True,True,True,1614.0
1399,20,PV,152,152,filler,,,F,153,1_11,1,3,False,False,True,39757.0
1400,20,WM,152,152,filler,3,,vi,157,1_11,1,b,Different,Same,False,1045.0
1401,20,PV,130,130,filler,,,au,158,1_12,1,3,False,False,True,101919.0
1402,20,PV,94,94,filler,,,au,159,1_13,1,3,False,False,True,1077.0
1403,20,PV,114,114,filler,,,vi,160,1_14,1,3,False,False,True,1498.0
1404,20,PV,166,166,filler,,,F,163,1_15,1,1,True,True,True,1739.0
1405,20,WM,166,166,filler,1,,au,165,1_15,1,b,Different,Different,True,1090.0
1406,20,PV,177,177,filler,,,F,166,1_16,1,1,True,True,True,27400.0
1407,20,PV,139,139,filler,,,au,171,1_17,1,3,False,False,True,1206.0
1408,20,WM,139,139,filler,3,,vi,175,1_17,1,b,Different,Different,True,1061.0
1409,20,PV,85,85,filler,,,vi,180,1_18,1,3,False,False,True,1006.0
1410,20,WM,85,85,filler,3,,vi,184,1_18,1,b,Different,Different,True,825.0
1411,20,PV,66,66,critical,,,au,189,1_19,1,1,True,True,True,1097.0
1412,20,WM,66,66,critical,3,,vi,193,1_19,1,c,Same,Same,True,971.0
1413,20,PV,67,67,critical,,,au,196,1_20,1,1,True,True,True,1200.0
1414,20,WM,67,67,critical,1,,au,198,1_20,1,c,Same,Same,True,699.0
1415,20,PV,180,180,filler,,,F,201,1_21,1,1,True,True,True,1410.0
1416,20,WM,180,180,filler,1,,vi,203,1_21,1,b,Different,Different,True,916.0
1417,20,PV,48,48,critical,,,au,206,1_22,1,1,True,True,True,1175.0
1418,20,WM,48,48,critical,3,,au,208,1_22,1,c,Same,Same,True,1130.0
1419,20,PV,8,8,critical,,,vi,211,1_23,1,1,True,True,True,1678.0
