id,participant_id,scale,item,item_id,item_type,version,condition,trial_index,response,reaction_time
1,7,IRQ,19,19,critical,,,130,2,8295.0
2,7,IRQ,4,4,critical,,,131,3,5109.0
3,7,IRQ,12,12,critical,,,132,4,4726.0
4,7,IRQ,1,1,critical,,,133,3,5080.0
5,7,IRQ,8,8,critical,,,134,3,5519.0
6,7,IRQ,7,7,critical,,,135,2,4124.0
7,9,IRQ,7,7,critical,,,123,2,7217.0
8,9,IRQ,21,21,critical,,,124,4,4117.0
9,9,IRQ,25,25,critical,,,125,1,10556.0
10,10,IRQ,7,7,critical,,,900,2,3423.0
11,10,IRQ,37,37,catch,,,901,1,3843.0
12,10,IRQ,23,23,critical,,,902,2,2879.0
13,10,IRQ,14,14,critical,,,903,5,2627.0
14,10,IRQ,8,8,critical,,,904,2,3519.0
15,10,IRQ,39,39,catch,,,905,1,2134.0
16,10,IRQ,12,12,critical,,,906,5,3190.0
17,10,IRQ,5,5,critical,,,907,3,7076.0
18,10,IRQ,22,22,critical,,,908,5,3300.0
19,10,IRQ,15,15,critical,,,909,4,3210.0
20,10,IRQ,34,34,critical,,,910,4,7407.0
21,10,IRQ,17,17,critical,,,911,5,2365.0
22,10,IRQ,19,19,critical,,,912,1,2780.0
23,10,IRQ,36,36,critical,,,913,5,3719.0
24,10,IRQ,11,11,critical,,,914,5,4412.0
25,10,IRQ,13,13,critical,,,915,5,3491.0
26,10,IRQ,31,31,critical,,,916,3,3202.0
27,10,IRQ,25,25,critical,,,917,1,4288.0
28,10,IRQ,16,16,critical,,,918,5,4013.0
29,10,IRQ,30,30,critical,,,919,5,5378.0
30,10,IRQ,26,26,critical,,,920,2,3261.0
31,10,IRQ,35,35,critical,,,921,5,2659.0
32,10,IRQ,20,20,critical,,,922,5,2590.0
33,10,IRQ,21,21,critical,,,923,5,2322.0
34,10,IRQ,4,4,critical,,,924,5,2748.0
35,10,IRQ,27,27,critical,,,925,5,4292.0
36,10,IRQ,32,32,critical,,,926,4,4619.0
37,10,IRQ,18,18,critical,,,927,5,3213.0
38,10,IRQ,28,28,critical,,,928,5,4602.0
39,10,IRQ,3,3,critical,,,929,3,15062.0
40,10,IRQ,6,6,critical,,,930,1,9961.0
41,10,IRQ,29,29,critical,,,931,3,3371.0
42,10,IRQ,2,2,critical,,,932,3,7847.0
43,10,IRQ,38,38,catch,,,933,5,2245.0
44,10,IRQ,1,1,critical,,,934,4,6283.0
45,10,IRQ,33,33,critical,,,935,2,3676.0
46,10,IRQ,24,24,critical,,,936,2,3389.0
47,10,IRQ,10,10,critical,,,937,3,7629.0
48,10,IRQ,9,9,critical,,,938,3,2954.0
49,14,IRQ,7,7,critical,,,115,2,2132.0
50,14,IRQ,33,33,critical,,,116,4,1984.0
51,14,IRQ,5,5,critical,,,117,3,959.0
52,14,IRQ,27,27,critical,,,118,1,977.0
53,14,IRQ,24,24,critical,,,119,5,1067.0
54,14,IRQ,22,22,critical,,,120,3,1320.0
55,15,IRQ,22,22,critical,,,900,3,5447.0
56,15,IRQ,15,15,critical,,,901,4,5421.0
57,15,IRQ,34,34,critical,,,902,3,5268.0
58,15,IRQ,33,33,critical,,,903,4,4520.0
59,15,IRQ,39,39,catch,,,904,1,4077.0
60,15,IRQ,24,24,critical,,,905,3,5761.0
61,15,IRQ,20,20,critical,,,906,1,3777.0
62,15,IRQ,4,4,critical,,,907,4,5492.0
63,15,IRQ,25,25,critical,,,908,2,4361.0
64,15,IRQ,29,29,critical,,,909,1,5572.0
65,15,IRQ,37,37,catch,,,910,1,4353.0
66,15,IRQ,19,19,critical,,,911,2,4381.0
67,15,IRQ,8,8,critical,,,912,3,3358.0
68,15,IRQ,23,23,critical,,,913,2,3561.0
69,15,IRQ,10,10,critical,,,914,2,3675.0
70,15,IRQ,17,17,critical,,,915,3,9309.0
71,15,IRQ,3,3,critical,,,916,3,2293.0
72,15,IRQ,26,26,critical,,,917,2,5188.0
73,15,IRQ,27,27,critical,,,918,2,8178.0
74,15,IRQ,14,14,critical,,,919,4,4642.0
75,15,IRQ,2,2,critical,,,920,4,3647.0
76,15,IRQ,21,21,critical,,,921,4,4191.0
77,15,IRQ,6,6,critical,,,922,3,2544.0
78,15,IRQ,32,32,critical,,,923,3,4781.0
79,15,IRQ,28,28,critical,,,924,3,2808.0
80,15,IRQ,35,35,critical,,,925,2,6362.0
81,15,IRQ,1,1,critical,,,926,4,2882.0
82,15,IRQ,36,36,critical,,,927,4,4583.0
83,15,IRQ,12,12,critical,,,928,4,2487.0
84,15,IRQ,7,7,critical,,,929,3,2134.0
85,15,IRQ,5,5,critical,,,930,4,2536.0
86,15,IRQ,11,11,critical,,,931,4,2806.0
87,15,IRQ,30,30,critical,,,932,4,2275.0
88,15,IRQ,38,38,catch,,,933,5,3314.0
89,15,IRQ,13,13,critical,,,934,3,2993.0
90,15,IRQ,18,18,critical,,,935,3,3096.0
91,15,IRQ,9,9,critical,,,936,3,3222.0
92,15,IRQ,16,16,critical,,,937,4,2594.0
93,15,IRQ,31,31,critical,,,938,3,3289.0
94,17,IRQ,36,36,critical,,,901,5,10967.0
95,17,IRQ,33,33,critical,,,902,4,8007.0
96,17,IRQ,32,32,critical,,,903,4,5651.0
97,17,IRQ,22,22,critical,,,904,5,7297.0
98,17,IRQ,12,12,critical,,,905,2,5237.0
99,17,IRQ,21,21,critical,,,906,3,8259.0
100,17,IRQ,15,15,critical,,,907,2,6504.0
101,17,IRQ,29,29,critical,,,908,2,8167.0
102,17,IRQ,2,2,critical,,,909,4,8083.0
103,17,IRQ,14,14,critical,,,910,2,6199.0
104,17,IRQ,10,10,critical,,,911,4,7865.0
105,17,IRQ,27,27,critical,,,912,1,7751.0
106,17,IRQ,4,4,critical,,,913,5,5408.0
107,17,IRQ,30,30,critical,,,914,2,11867.0
108,17,IRQ,5,5,critical,,,915,4,7583.0
109,17,IRQ,6,6,critical,,,916,5,2975.0
110,17,IRQ,19,19,critical,,,917,1,4262.0
111,17,IRQ,35,35,critical,,,918,4,7122.0
112,17,IRQ,3,3,critical,,,919,4,3192.0
113,17,IRQ,34,34,critical,,,920,2,8084.0
114,17,IRQ,17,17,critical,,,921,2,5880.0
115,17,IRQ,20,20,critical,,,922,3,3843.0
116,17,IRQ,16,16,critical,,,923,3,5833.0
117,17,IRQ,38,38,catch,,,924,5,3801.0
118,17,IRQ,39,39,catch,,,925,1,2945.0
119,17,IRQ,7,7,critical,,,926,4,3530.0
120,17,IRQ,24,24,critical,,,927,1,6404.0
121,17,IRQ,8,8,critical,,,928,5,7708.0
122,17,IRQ,1,1,critical,,,929,4,7466.0
123,17,IRQ,25,25,critical,,,930,2,6293.0
124,17,IRQ,28,28,critical,,,931,2,8410.0
125,17,IRQ,9,9,critical,,,932,2,3117.0
126,17,IRQ,23,23,critical,,,933,1,3515.0
127,17,IRQ,13,13,critical,,,934,3,5806.0
128,17,IRQ,11,11,critical,,,935,2,5242.0
129,17,IRQ,37,37,catch,,,936,1,3156.0
130,17,IRQ,31,31,critical,,,937,3,6693.0
131,17,IRQ,26,26,critical,,,938,5,9052.0
132,17,IRQ,18,18,critical,,,939,5,4591.0
133,18,IRQ,26,26,critical,,,900,1,9243.0
134,18,IRQ,1,1,critical,,,901,5,5335.0
135,18,IRQ,19,19,critical,,,902,1,3645.0
136,18,IRQ,8,8,critical,,,903,5,5188.0
137,18,IRQ,36,36,critical,,,904,2,5143.0
138,18,IRQ,29,29,critical,,,905,2,5476.0
139,18,IRQ,27,27,critical,,,906,5,3137.0
140,18,IRQ,28,28,critical,,,907,2,5505.0
141,18,IRQ,10,10,critical,,,908,5,6772.0
142,18,IRQ,37,37,catch,,,909,1,8894.0
143,18,IRQ,38,38,catch,,,910,5,7981.0
144,18,IRQ,33,33,critical,,,911,5,6146.0
145,18,IRQ,7,7,critical,,,912,3,5623.0
146,18,IRQ,15,15,critical,,,913,4,8796.0
147,18,IRQ,22,22,critical,,,914,5,2787.0
148,18,IRQ,13,13,critical,,,915,4,3264.0
149,18,IRQ,34,34,critical,,,916,3,13024.0
150,18,IRQ,14,14,critical,,,917,5,2798.0
151,18,IRQ,21,21,critical,,,918,5,2456.0
152,18,IRQ,39,39,catch,,,919,1,3703.0
153,18,IRQ,23,23,critical,,,920,1,4643.0
154,18,IRQ,24,24,critical,,,921,1,3508.0
155,18,IRQ,12,12,critical,,,922,5,2565.0
156,18,IRQ,25,25,critical,,,923,1,3600.0
157,18,IRQ,30,30,critical,,,924,3,19484.0
158,18,IRQ,5,5,critical,,,925,3,5276.0
159,18,IRQ,35,35,critical,,,926,4,3682.0
160,18,IRQ,31,31,critical,,,927,1,3324.0
161,18,IRQ,9,9,critical,,,928,4,3544.0
162,18,IRQ,11,11,critical,,,929,5,3567.0
163,18,IRQ,6,6,critical,,,930,5,2409.0
164,18,IRQ,16,16,critical,,,931,5,2511.0
165,18,IRQ,32,32,critical,,,932,4,4971.0
166,18,IRQ,18,18,critical,,,933,5,6397.0
167,18,IRQ,4,4,critical,,,934,4,3956.0
168,18,IRQ,20,20,critical,,,935,3,2895.0
169,18,IRQ,2,2,critical,,,936,4,3003.0
170,18,IRQ,17,17,critical,,,937,4,2823.0
171,18,IRQ,3,3,critical,,,938,3,2362.0
172,20,IRQ,36,36,critical,,,900,4,5468.0
173,20,IRQ,33,33,critical,,,901,3,3665.0
174,20,IRQ,28,28,critical,,,902,4,4546.0
175,20,IRQ,22,22,critical,,,903,5,2929.0
176,20,IRQ,39,39,catch,,,904,1,3541.0
177,20,IRQ,35,35,critical,,,905,4,4180.0
178,20,IRQ,16,16,critical,,,906,5,3114.0
179,20,IRQ,10,10,critical,,,907,3,5630.0
180,20,IRQ,18,18,critical,,,908,5,11422.0
181,20,IRQ,19,19,critical,,,909,1,3543.0
182,20,IRQ,9,9,critical,,,910,2,16835.0
183,20,IRQ,6,6,critical,,,911,2,2886.0
184,20,IRQ,32,32,critical,,,912,5,3420.0
185,20,IRQ,1,1,critical,,,913,3,5080.0
186,20,IRQ,4,4,critical,,,914,3,21954.0
187,20,IRQ,15,15,critical,,,915,5,3421.0
188,20,IRQ,13,13,critical,,,916,5,7105.0
189,20,IRQ,29,29,critical,,,917,3,3789.0
190,20,IRQ,34,34,critical,,,918,4,5523.0
191,20,IRQ,38,38,catch,,,919,5,2672.0
192,20,IRQ,11,11,critical,,,920,4,7021.0
193,20,IRQ,3,3,critical,,,921,1,3897.0
194,20,IRQ,25,25,critical,,,922,2,3661.0
195,20,IRQ,7,7,critical,,,923,3,3062.0
196,20,IRQ,12,12,critical,,,924,5,3591.0
197,20,IRQ,2,2,critical,,,925,3,6468.0
198,20,IRQ,23,23,critical,,,926,3,3665.0
199,20,IRQ,5,5,critical,,,927,2,3350.0
200,20,IRQ,37,37,catch,,,928,1,4320.0
201,20,IRQ,26,26,critical,,,929,1,79723.0
202,20,IRQ,14,14,critical,,,930,5,4515.0
203,20,IRQ,17,17,critical,,,931,5,3661.0
204,20,IRQ,24,24,critical,,,932,2,3799.0
205,20,IRQ,8,8,critical,,,933,2,4556.0
206,20,IRQ,21,21,critical,,,934,5,3140.0
207,20,IRQ,31,31,critical,,,935,5,3127.0
208,20,IRQ,30,30,critical,,,936,5,7914.0
209,20,IRQ,20,20,critical,,,937,5,3235.0
210,20,IRQ,27,27,critical,,,938,4,2990.0
211,22,IRQ,1,1,critical,,,906,3,7971.0
212,22,IRQ,30,30,critical,,,907,2,12920.0
213,22,IRQ,11,11,critical,,,908,4,3555.0
214,22,IRQ,36,36,critical,,,909,4,5021.0
215,22,IRQ,21,21,critical,,,910,4,3547.0
216,22,IRQ,14,14,critical,,,911,4,2776.0
217,22,IRQ,16,16,critical,,,912,4,3621.0
218,22,IRQ,18,18,critical,,,913,4,5537.0
219,22,IRQ,5,5,critical,,,914,5,4162.0
220,22,IRQ,23,23,critical,,,915,2,3122.0
221,22,IRQ,12,12,critical,,,916,4,3269.0
222,22,IRQ,13,13,critical,,,917,5,3020.0
223,22,IRQ,17,17,critical,,,918,4,3225.0
224,22,IRQ,10,10,critical,,,919,4,7290.0
225,22,IRQ,28,28,critical,,,920,4,3396.0
226,22,IRQ,22,22,critical,,,921,4,6801.0
227,22,IRQ,35,35,critical,,,922,2,4662.0
228,22,IRQ,24,24,critical,,,923,1,3879.0
229,22,IRQ,8,8,critical,,,924,3,5242.0
230,22,IRQ,31,31,critical,,,925,2,3286.0
231,22,IRQ,9,9,critical,,,926,2,3076.0
232,22,IRQ,15,15,critical,,,927,4,3917.0
233,22,IRQ,34,34,critical,,,928,2,3991.0
234,22,IRQ,37,37,catch,,,929,1,4712.0
235,22,IRQ,20,20,critical,,,930,2,3613.0
236,22,IRQ,26,26,critical,,,931,1,4031.0
237,22,IRQ,39,39,catch,,,932,1,3072.0
238,22,IRQ,29,29,critical,,,933,1,2792.0
239,22,IRQ,27,27,critical,,,934,2,2891.0
240,22,IRQ,33,33,critical,,,935,5,4228.0
241,22,IRQ,19,19,critical,,,936,2,3061.0
242,22,IRQ,25,25,critical,,,937,1,2996.0
243,22,IRQ,2,2,critical,,,938,3,5724.0
244,22,IRQ,3,3,critical,,,939,3,3579.0
245,22,IRQ,38,38,catch,,,940,5,3430.0
246,22,IRQ,6,6,critical,,,941,4,3142.0
247,22,IRQ,7,7,critical,,,942,3,3970.0
248,22,IRQ,32,32,critical,,,943,1,3138.0
249,22,IRQ,4,4,critical,,,944,4,3341.0
250,25,IRQ,30,30,critical,,,900,4,17035.0
251,25,IRQ,15,15,critical,,,901,4,10030.0
252,25,IRQ,31,31,critical,,,902,4,9098.0
253,25,IRQ,33,33,critical,,,903,3,5584.0
254,25,IRQ,14,14,critical,,,904,3,4750.0
255,25,IRQ,1,1,critical,,,905,2,13003.0
256,25,IRQ,34,34,critical,,,906,2,12508.0
257,25,IRQ,29,29,critical,,,907,3,5491.0
258,25,IRQ,12,12,critical,,,908,5,7989.0
259,25,IRQ,27,27,critical,,,909,2,6649.0
260,25,IRQ,26,26,critical,,,910,2,10720.0
261,25,IRQ,36,36,critical,,,911,3,9159.0
262,25,IRQ,32,32,critical,,,912,4,8900.0
263,25,IRQ,18,18,critical,,,913,4,5534.0
264,25,IRQ,37,37,catch,,,914,1,8398.0
265,25,IRQ,13,13,critical,,,915,4,6887.0
266,25,IRQ,24,24,critical,,,916,3,6442.0
267,25,IRQ,6,6,critical,,,917,3,5352.0
268,25,IRQ,8,8,critical,,,918,4,16203.0
269,25,IRQ,3,3,critical,,,919,3,4732.0
270,25,IRQ,39,39,catch,,,920,1,3430.0
271,25,IRQ,9,9,critical,,,921,4,7726.0
272,25,IRQ,11,11,critical,,,922,4,6376.0
273,25,IRQ,35,35,critical,,,923,3,11433.0
274,25,IRQ,19,19,critical,,,924,2,7318.0
275,25,IRQ,4,4,critical,,,925,4,9768.0
276,25,IRQ,20,20,critical,,,926,3,5819.0
277,25,IRQ,23,23,critical,,,927,1,6763.0
278,25,IRQ,22,22,critical,,,928,4,7171.0
279,25,IRQ,17,17,critical,,,929,4,4878.0
280,25,IRQ,21,21,critical,,,930,4,5735.0
281,25,IRQ,5,5,critical,,,931,4,7812.0
282,25,IRQ,38,38,catch,,,932,5,3987.0
283,25,IRQ,2,2,critical,,,933,4,14377.0
284,25,IRQ,25,25,critical,,,934,1,7010.0
285,25,IRQ,16,16,critical,,,935,4,3088.0
286,25,IRQ,10,10,critical,,,936,3,12105.0
287,25,IRQ,28,28,critical,,,937,4,7484.0
288,25,IRQ,7,7,critical,,,938,4,3638.0
289,28,IRQ,22,22,critical,,,900,4,8446.0
290,28,IRQ,20,20,critical,,,901,4,3918.0
291,28,IRQ,4,4,critical,,,902,3,8573.0
292,28,IRQ,14,14,critical,,,903,4,4118.0
293,28,IRQ,8,8,critical,,,904,3,9065.0
294,28,IRQ,30,30,critical,,,905,4,18210.0
295,28,IRQ,11,11,critical,,,906,4,5420.0
296,28,IRQ,19,19,critical,,,907,2,3383.0
297,28,IRQ,27,27,critical,,,908,4,6150.0
298,28,IRQ,10,10,critical,,,909,3,9439.0
299,28,IRQ,28,28,critical,,,910,4,6685.0
300,28,IRQ,2,2,critical,,,911,4,5385.0
301,28,IRQ,38,38,catch,,,912,5,3332.0
302,28,IRQ,18,18,critical,,,913,4,5772.0
303,28,IRQ,29,29,critical,,,914,3,6809.0
304,28,IRQ,32,32,critical,,,915,5,10848.0
305,28,IRQ,25,25,critical,,,916,2,6564.0
306,28,IRQ,24,24,critical,,,917,2,6509.0
307,28,IRQ,37,37,catch,,,918,1,4113.0
308,28,IRQ,36,36,critical,,,919,4,5101.0
309,28,IRQ,3,3,critical,,,920,3,4909.0
310,28,IRQ,23,23,critical,,,921,3,4955.0
311,28,IRQ,26,26,critical,,,922,4,5779.0
312,28,IRQ,12,12,critical,,,923,4,6283.0
313,28,IRQ,35,35,critical,,,924,3,25577.0
314,28,IRQ,17,17,critical,,,925,4,4519.0
315,28,IRQ,9,9,critical,,,926,3,5010.0
316,28,IRQ,13,13,critical,,,927,5,5513.0
317,28,IRQ,33,33,critical,,,928,3,4230.0
318,28,IRQ,15,15,critical,,,929,4,4794.0
319,28,IRQ,16,16,critical,,,930,4,4815.0
320,28,IRQ,21,21,critical,,,931,5,4600.0
321,28,IRQ,39,39,catch,,,932,1,3169.0
322,28,IRQ,5,5,critical,,,933,2,5410.0
323,28,IRQ,7,7,critical,,,934,3,2996.0
324,28,IRQ,34,34,critical,,,935,5,7740.0
325,28,IRQ,1,1,critical,,,936,3,4784.0
326,28,IRQ,6,6,critical,,,937,4,3785.0
327,28,IRQ,31,31,critical,,,938,2,3265.0
328,30,IRQ,18,18,critical,,,900,5,6693.0
329,30,IRQ,23,23,critical,,,901,2,6346.0
330,30,IRQ,9,9,critical,,,902,3,8352.0
331,30,IRQ,36,36,critical,,,903,4,9711.0
332,30,IRQ,21,21,critical,,,904,4,5398.0
333,30,IRQ,2,2,critical,,,905,5,4501.0
334,30,IRQ,19,19,critical,,,906,1,4257.0
335,30,IRQ,34,34,critical,,,907,1,7495.0
336,30,IRQ,3,3,critical,,,908,4,2952.0
337,30,IRQ,8,8,critical,,,909,5,9114.0
338,30,IRQ,1,1,critical,,,910,3,5521.0
339,30,IRQ,39,39,catch,,,911,1,4195.0
340,30,IRQ,14,14,critical,,,912,4,5976.0
341,30,IRQ,38,38,catch,,,913,5,5082.0
342,30,IRQ,27,27,critical,,,914,4,8370.0
343,30,IRQ,35,35,critical,,,915,2,7590.0
344,30,IRQ,13,13,critical,,,916,3,4842.0
345,30,IRQ,7,7,critical,,,917,4,7864.0
346,30,IRQ,25,25,critical,,,918,1,6514.0
347,30,IRQ,24,24,critical,,,919,1,6944.0
348,30,IRQ,37,37,catch,,,920,1,4011.0
349,30,IRQ,28,28,critical,,,921,4,5754.0
350,30,IRQ,22,22,critical,,,922,5,4433.0
351,30,IRQ,30,30,critical,,,923,3,11004.0
352,30,IRQ,16,16,critical,,,924,4,6230.0
353,30,IRQ,5,5,critical,,,925,5,4097.0
354,30,IRQ,26,26,critical,,,926,1,5854.0
355,30,IRQ,32,32,critical,,,927,5,6215.0
356,30,IRQ,33,33,critical,,,928,2,8785.0
357,30,IRQ,4,4,critical,,,929,2,6515.0
358,30,IRQ,15,15,critical,,,930,2,5275.0
359,30,IRQ,6,6,critical,,,931,4,4214.0
360,30,IRQ,31,31,critical,,,932,4,4190.0
361,30,IRQ,11,11,critical,,,933,4,14391.0
362,30,IRQ,17,17,critical,,,934,2,12346.0
363,30,IRQ,10,10,critical,,,935,2,6981.0
364,30,IRQ,20,20,critical,,,936,1,3667.0
365,30,IRQ,29,29,critical,,,937,4,4496.0
366,30,IRQ,12,12,critical,,,938,5,4541.0
367,32,IRQ,29,29,critical,,,900,2,23221.0
368,32,IRQ,18,18,critical,,,901,5,3377.0
369,32,IRQ,22,22,critical,,,902,5,3378.0
370,32,IRQ,19,19,critical,,,903,1,9987.0
371,32,IRQ,35,35,critical,,,904,4,4306.0
372,32,IRQ,26,26,critical,,,905,4,22393.0
373,32,IRQ,3,3,critical,,,906,2,5625.0
374,32,IRQ,33,33,critical,,,907,5,5971.0
375,32,IRQ,13,13,critical,,,908,4,6698.0
376,32,IRQ,32,32,critical,,,909,5,3618.0
377,32,IRQ,28,28,critical,,,910,3,5658.0
378,32,IRQ,1,1,critical,,,911,2,4995.0
379,32,IRQ,21,21,critical,,,912,5,2979.0
380,32,IRQ,6,6,critical,,,913,3,7443.0
381,32,IRQ,16,16,critical,,,914,5,4426.0
382,32,IRQ,10,10,critical,,,915,4,21858.0
383,32,IRQ,34,34,critical,,,916,2,28185.0
384,32,IRQ,36,36,critical,,,917,5,13035.0
385,32,IRQ,7,7,critical,,,918,2,12298.0
386,32,IRQ,31,31,critical,,,919,3,9202.0
387,32,IRQ,37,37,catch,,,920,1,5018.0
388,32,IRQ,9,9,critical,,,921,2,5740.0
389,32,IRQ,20,20,critical,,,922,3,8266.0
390,32,IRQ,23,23,critical,,,923,1,5203.0
391,32,IRQ,17,17,critical,,,924,5,5786.0
392,32,IRQ,8,8,critical,,,925,2,18139.0
393,32,IRQ,12,12,critical,,,926,5,4010.0
394,32,IRQ,4,4,critical,,,927,1,4138.0
395,32,IRQ,27,27,critical,,,928,5,2355.0
396,32,IRQ,39,39,catch,,,929,1,2146.0
397,32,IRQ,14,14,critical,,,930,5,2339.0
398,32,IRQ,38,38,catch,,,931,5,2010.0
399,32,IRQ,2,2,critical,,,932,5,4937.0
400,32,IRQ,11,11,critical,,,933,5,6074.0
401,32,IRQ,5,5,critical,,,934,4,7363.0
402,32,IRQ,30,30,critical,,,935,5,9176.0
403,32,IRQ,24,24,critical,,,936,1,5586.0
404,32,IRQ,25,25,critical,,,937,1,3842.0
405,32,IRQ,15,15,critical,,,938,4,11227.0
406,33,IRQ,4,4,critical,,,900,5,5691.0
407,33,IRQ,11,11,critical,,,901,5,5631.0
408,33,IRQ,5,5,critical,,,902,3,8068.0
409,33,IRQ,1,1,critical,,,903,5,6127.0
410,33,IRQ,12,12,critical,,,904,5,6617.0
411,33,IRQ,7,7,critical,,,905,5,4351.0
412,33,IRQ,32,32,critical,,,906,5,7443.0
413,33,IRQ,29,29,critical,,,907,3,6632.0
414,33,IRQ,36,36,critical,,,908,5,6250.0
415,33,IRQ,22,22,critical,,,909,5,8143.0
416,33,IRQ,17,17,critical,,,910,5,5871.0
417,33,IRQ,26,26,critical,,,911,5,6451.0
418,33,IRQ,6,6,critical,,,912,2,6706.0
419,33,IRQ,8,8,critical,,,913,3,8709.0
420,33,IRQ,3,3,critical,,,914,5,4926.0
421,33,IRQ,37,37,catch,,,915,1,6598.0
422,33,IRQ,34,34,critical,,,916,1,8671.0
423,33,IRQ,14,14,critical,,,917,4,4377.0
424,33,IRQ,23,23,critical,,,918,1,7051.0
425,33,IRQ,39,39,catch,,,919,1,3812.0
426,33,IRQ,2,2,critical,,,920,4,6801.0
427,33,IRQ,18,18,critical,,,921,5,6784.0
428,33,IRQ,27,27,critical,,,922,5,4573.0
429,33,IRQ,13,13,critical,,,923,5,4534.0
430,33,IRQ,16,16,critical,,,924,5,4070.0
431,33,IRQ,10,10,critical,,,925,1,6892.0
432,33,IRQ,20,20,critical,,,926,1,8082.0
433,33,IRQ,19,19,critical,,,927,5,6108.0
434,33,IRQ,35,35,critical,,,928,4,8715.0
435,33,IRQ,15,15,critical,,,929,4,5549.0
436,33,IRQ,21,21,critical,,,930,4,5800.0
437,33,IRQ,24,24,critical,,,931,1,6454.0
438,33,IRQ,33,33,critical,,,932,3,6888.0
439,33,IRQ,25,25,critical,,,933,1,6611.0
440,33,IRQ,38,38,catch,,,934,5,3895.0
441,33,IRQ,31,31,critical,,,935,5,4571.0
442,33,IRQ,30,30,critical,,,936,5,7430.0
443,33,IRQ,9,9,critical,,,937,3,6564.0
444,33,IRQ,28,28,critical,,,938,5,5344.0
445,31,IRQ,27,27,critical,,,900,2,18493.0
446,31,IRQ,19,19,critical,,,901,3,6049.0
447,31,IRQ,13,13,critical,,,902,3,8305.0
448,31,IRQ,5,5,critical,,,903,4,12593.0
449,31,IRQ,4,4,critical,,,904,3,5599.0
450,31,IRQ,14,14,critical,,,905,4,4237.0
451,31,IRQ,8,8,critical,,,906,4,9655.0
452,31,IRQ,30,30,critical,,,907,5,14726.0
453,31,IRQ,15,15,critical,,,908,3,7343.0
454,31,IRQ,6,6,critical,,,909,4,4861.0
455,31,IRQ,9,9,critical,,,910,4,5264.0
456,31,IRQ,21,21,critical,,,911,3,6317.0
457,31,IRQ,36,36,critical,,,912,5,8773.0
458,31,IRQ,11,11,critical,,,913,5,11890.0
459,31,IRQ,33,33,critical,,,914,1,18076.0
460,31,IRQ,39,39,catch,,,915,1,6377.0
461,31,IRQ,24,24,critical,,,916,4,8928.0
462,31,IRQ,16,16,critical,,,917,4,5970.0
463,31,IRQ,22,22,critical,,,918,4,4222.0
464,31,IRQ,37,37,catch,,,919,1,3950.0
465,31,IRQ,20,20,critical,,,920,4,20274.0
466,31,IRQ,10,10,critical,,,921,1,20593.0
467,31,IRQ,38,38,catch,,,922,5,11472.0
468,31,IRQ,34,34,critical,,,923,2,16713.0
469,31,IRQ,2,2,critical,,,924,4,11226.0
470,31,IRQ,12,12,critical,,,925,5,4138.0
471,31,IRQ,3,3,critical,,,926,3,3141.0
472,31,IRQ,18,18,critical,,,927,5,3613.0
473,31,IRQ,25,25,critical,,,928,3,7893.0
474,31,IRQ,23,23,critical,,,929,4,4500.0
475,31,IRQ,31,31,critical,,,930,4,3682.0
476,31,IRQ,7,7,critical,,,931,5,5272.0
477,31,IRQ,35,35,critical,,,932,2,9090.0
478,31,IRQ,32,32,critical,,,933,5,5276.0
479,31,IRQ,17,17,critical,,,934,5,8058.0
480,31,IRQ,28,28,critical,,,935,5,6392.0
481,31,IRQ,26,26,critical,,,936,5,6404.0
482,31,IRQ,1,1,critical,,,937,5,6630.0
483,31,IRQ,29,29,critical,,,938,5,24599.0
484,36,IRQ,11,11,critical,,,900,4,4968.0
485,36,IRQ,3,3,critical,,,901,4,3032.0
486,36,IRQ,39,39,catch,,,902,1,3950.0
487,36,IRQ,5,5,critical,,,903,4,5536.0
488,36,IRQ,38,38,catch,,,904,5,3054.0
489,36,IRQ,27,27,critical,,,905,3,5720.0
490,36,IRQ,33,33,critical,,,906,2,8261.0
491,36,IRQ,6,6,critical,,,907,3,2510.0
492,36,IRQ,9,9,critical,,,908,3,3425.0
493,36,IRQ,7,7,critical,,,909,3,6628.0
494,36,IRQ,4,4,critical,,,910,3,4150.0
495,36,IRQ,29,29,critical,,,911,4,4026.0
496,36,IRQ,14,14,critical,,,912,4,3220.0
497,36,IRQ,12,12,critical,,,913,5,3899.0
498,36,IRQ,30,30,critical,,,914,5,7848.0
499,36,IRQ,21,21,critical,,,915,4,4128.0
500,36,IRQ,37,37,catch,,,916,1,2723.0
501,36,IRQ,24,24,critical,,,917,3,4432.0
502,36,IRQ,19,19,critical,,,918,4,5415.0
503,36,IRQ,31,31,critical,,,919,3,3054.0
504,36,IRQ,1,1,critical,,,920,5,3934.0
505,36,IRQ,2,2,critical,,,921,4,3955.0
506,36,IRQ,34,34,critical,,,922,2,5093.0
507,36,IRQ,16,16,critical,,,923,5,2878.0
508,36,IRQ,23,23,critical,,,924,2,3503.0
509,36,IRQ,35,35,critical,,,925,1,4860.0
510,36,IRQ,32,32,critical,,,926,5,5248.0
511,36,IRQ,15,15,critical,,,927,3,6371.0
512,36,IRQ,28,28,critical,,,928,5,4012.0
513,36,IRQ,17,17,critical,,,929,5,3266.0
514,36,IRQ,10,10,critical,,,930,2,4803.0
515,36,IRQ,13,13,critical,,,931,5,2455.0
516,36,IRQ,36,36,critical,,,932,4,4358.0
517,36,IRQ,18,18,critical,,,933,5,3048.0
518,36,IRQ,26,26,critical,,,934,1,4225.0
519,36,IRQ,8,8,critical,,,935,4,5688.0
520,36,IRQ,25,25,critical,,,936,1,5936.0
521,36,IRQ,22,22,critical,,,937,5,2436.0
522,36,IRQ,20,20,critical,,,938,2,4143.0
523,37,IRQ,34,34,critical,,,900,4,11147.0
524,37,IRQ,13,13,critical,,,901,5,5250.0
525,37,IRQ,8,8,critical,,,902,5,6950.0
526,37,IRQ,18,18,critical,,,903,5,8568.0
527,37,IRQ,11,11,critical,,,904,2,5180.0
528,37,IRQ,32,32,critical,,,905,4,5300.0
529,37,IRQ,37,37,catch,,,906,1,7668.0
530,37,IRQ,5,5,critical,,,907,4,5964.0
531,37,IRQ,39,39,catch,,,908,1,5345.0
532,37,IRQ,26,26,critical,,,909,4,5796.0
533,37,IRQ,35,35,critical,,,910,3,9342.0
534,37,IRQ,27,27,critical,,,911,2,7487.0
535,37,IRQ,20,20,critical,,,912,2,3937.0
536,37,IRQ,33,33,critical,,,913,4,8719.0
537,37,IRQ,31,31,critical,,,914,4,5673.0
538,37,IRQ,10,10,critical,,,915,2,8913.0
539,37,IRQ,15,15,critical,,,916,2,6597.0
540,37,IRQ,36,36,critical,,,917,4,4618.0
541,37,IRQ,14,14,critical,,,918,4,4034.0
542,37,IRQ,1,1,critical,,,919,5,4692.0
543,37,IRQ,25,25,critical,,,920,1,5221.0
544,37,IRQ,19,19,critical,,,921,2,4572.0
545,37,IRQ,38,38,catch,,,922,5,4260.0
546,37,IRQ,28,28,critical,,,923,2,12651.0
547,37,IRQ,22,22,critical,,,924,5,5240.0
548,37,IRQ,29,29,critical,,,925,2,5305.0
549,37,IRQ,3,3,critical,,,926,3,6374.0
550,37,IRQ,9,9,critical,,,927,2,4897.0
551,37,IRQ,23,23,critical,,,928,1,3774.0
552,37,IRQ,24,24,critical,,,929,2,16649.0
553,37,IRQ,12,12,critical,,,930,2,22311.0
554,37,IRQ,16,16,critical,,,931,3,5492.0
555,37,IRQ,7,7,critical,,,932,3,4223.0
556,37,IRQ,2,2,critical,,,933,4,3667.0
557,37,IRQ,6,6,critical,,,934,4,4613.0
558,37,IRQ,21,21,critical,,,935,2,4316.0
559,37,IRQ,17,17,critical,,,936,3,5846.0
560,37,IRQ,30,30,critical,,,937,1,5310.0
561,37,IRQ,4,4,critical,,,938,3,6948.0
562,40,IRQ,25,25,critical,,,900,3,9939.0
563,40,IRQ,38,38,catch,,,901,5,2945.0
564,40,IRQ,5,5,critical,,,902,4,5961.0
565,40,IRQ,35,35,critical,,,903,4,4813.0
566,40,IRQ,28,28,critical,,,904,4,4814.0
567,40,IRQ,20,20,critical,,,905,2,3396.0
568,40,IRQ,12,12,critical,,,906,3,3980.0
569,40,IRQ,33,33,critical,,,907,1,7163.0
570,40,IRQ,6,6,critical,,,908,4,3480.0
571,40,IRQ,7,7,critical,,,909,4,5064.0
572,40,IRQ,1,1,critical,,,910,4,4497.0
573,40,IRQ,9,9,critical,,,911,3,5345.0
574,40,IRQ,37,37,catch,,,912,1,4995.0
575,40,IRQ,22,22,critical,,,913,3,3380.0
576,40,IRQ,27,27,critical,,,914,2,2898.0
577,40,IRQ,34,34,critical,,,915,3,5962.0
578,40,IRQ,29,29,critical,,,916,5,3948.0
579,40,IRQ,19,19,critical,,,917,3,3294.0
580,40,IRQ,24,24,critical,,,918,3,3114.0
581,40,IRQ,39,39,catch,,,919,1,2614.0
582,40,IRQ,14,14,critical,,,920,4,3412.0
583,40,IRQ,26,26,critical,,,921,4,6380.0
584,40,IRQ,31,31,critical,,,922,4,3529.0
585,40,IRQ,8,8,critical,,,923,4,5614.0
586,40,IRQ,13,13,critical,,,924,3,4463.0
587,40,IRQ,32,32,critical,,,925,5,4747.0
588,40,IRQ,2,2,critical,,,926,4,5128.0
589,40,IRQ,18,18,critical,,,927,3,2413.0
590,40,IRQ,36,36,critical,,,928,5,3796.0
591,40,IRQ,30,30,critical,,,929,5,6364.0
592,40,IRQ,21,21,critical,,,930,4,7778.0
593,40,IRQ,17,17,critical,,,931,2,6429.0
594,40,IRQ,15,15,critical,,,932,3,4996.0
595,40,IRQ,3,3,critical,,,933,4,2997.0
596,40,IRQ,16,16,critical,,,934,4,3515.0
597,40,IRQ,10,10,critical,,,935,3,6778.0
598,40,IRQ,23,23,critical,,,936,2,3847.0
599,40,IRQ,11,11,critical,,,937,4,8029.0
600,40,IRQ,4,4,critical,,,938,4,4663.0
601,42,IRQ,20,20,critical,,,900,4,4475.0
602,42,IRQ,19,19,critical,,,901,3,4282.0
603,42,IRQ,27,27,critical,,,902,2,6854.0
604,42,IRQ,1,1,critical,,,903,2,5491.0
605,42,IRQ,15,15,critical,,,904,2,4576.0
606,42,IRQ,6,6,critical,,,905,3,3855.0
607,42,IRQ,4,4,critical,,,906,2,4689.0
608,42,IRQ,32,32,critical,,,907,3,7089.0
609,42,IRQ,16,16,critical,,,908,4,6917.0
610,42,IRQ,38,38,catch,,,909,5,3356.0
611,42,IRQ,31,31,critical,,,910,3,7068.0
612,42,IRQ,18,18,critical,,,911,4,5700.0
613,42,IRQ,11,11,critical,,,912,4,6466.0
614,42,IRQ,14,14,critical,,,913,4,3339.0
615,42,IRQ,34,34,critical,,,914,3,5600.0
616,42,IRQ,23,23,critical,,,915,2,3300.0
617,42,IRQ,29,29,critical,,,916,2,2983.0
618,42,IRQ,28,28,critical,,,917,3,4363.0
619,42,IRQ,7,7,critical,,,918,2,3951.0
620,42,IRQ,8,8,critical,,,919,3,3609.0
621,42,IRQ,2,2,critical,,,920,2,2703.0
622,42,IRQ,10,10,critical,,,921,3,2983.0
623,42,IRQ,37,37,catch,,,922,1,3617.0
624,42,IRQ,39,39,catch,,,923,1,3458.0
625,42,IRQ,21,21,critical,,,924,4,5022.0
626,42,IRQ,12,12,critical,,,925,4,3991.0
627,42,IRQ,5,5,critical,,,926,2,6426.0
628,42,IRQ,25,25,critical,,,927,2,4701.0
629,42,IRQ,17,17,critical,,,928,4,2895.0
630,42,IRQ,33,33,critical,,,929,2,6761.0
631,42,IRQ,35,35,critical,,,930,2,4621.0
632,42,IRQ,30,30,critical,,,931,3,9799.0
633,42,IRQ,9,9,critical,,,932,2,3864.0
634,42,IRQ,36,36,critical,,,933,2,4100.0
635,42,IRQ,22,22,critical,,,934,4,3403.0
636,42,IRQ,13,13,critical,,,935,4,4410.0
637,42,IRQ,26,26,critical,,,936,2,5434.0
638,42,IRQ,3,3,critical,,,937,2,3886.0
639,42,IRQ,24,24,critical,,,938,2,9791.0
640,45,IRQ,8,8,critical,,,900,4,6294.0
641,45,IRQ,7,7,critical,,,901,2,7558.0
642,45,IRQ,9,9,critical,,,902,4,5054.0
643,45,IRQ,27,27,critical,,,903,4,9532.0
644,45,IRQ,30,30,critical,,,904,4,7824.0
645,45,IRQ,36,36,critical,,,905,4,4203.0
646,45,IRQ,31,31,critical,,,906,2,5538.0
647,45,IRQ,2,2,critical,,,907,4,6213.0
648,45,IRQ,24,24,critical,,,908,2,7991.0
649,45,IRQ,6,6,critical,,,909,4,5556.0
650,45,IRQ,17,17,critical,,,910,4,6534.0
651,45,IRQ,38,38,catch,,,911,5,6047.0
652,45,IRQ,14,14,critical,,,912,3,7251.0
653,45,IRQ,22,22,critical,,,913,2,5158.0
654,45,IRQ,37,37,catch,,,914,1,4186.0
655,45,IRQ,5,5,critical,,,915,5,5585.0
656,45,IRQ,19,19,critical,,,916,2,6268.0
657,45,IRQ,25,25,critical,,,917,2,6560.0
658,45,IRQ,34,34,critical,,,918,2,7241.0
659,45,IRQ,21,21,critical,,,919,4,6246.0
660,45,IRQ,28,28,critical,,,920,4,5476.0
661,45,IRQ,35,35,critical,,,921,4,4362.0
662,45,IRQ,13,13,critical,,,922,4,6147.0
663,45,IRQ,3,3,critical,,,923,4,5100.0
664,45,IRQ,33,33,critical,,,924,3,9119.0
665,45,IRQ,39,39,catch,,,925,1,3513.0
666,45,IRQ,23,23,critical,,,926,1,4588.0
667,45,IRQ,26,26,critical,,,927,2,6953.0
668,45,IRQ,20,20,critical,,,928,3,4949.0
669,45,IRQ,11,11,critical,,,929,4,9141.0
670,45,IRQ,1,1,critical,,,930,3,13355.0
671,45,IRQ,29,29,critical,,,931,4,9404.0
672,45,IRQ,18,18,critical,,,932,1,7515.0
673,45,IRQ,15,15,critical,,,933,2,7512.0
674,45,IRQ,16,16,critical,,,934,4,6629.0
675,45,IRQ,4,4,critical,,,935,3,98104.0
676,45,IRQ,32,32,critical,,,936,5,29260.0
677,45,IRQ,10,10,critical,,,937,1,12269.0
678,45,IRQ,12,12,critical,,,938,5,7429.0
679,54,IRQ,6,6,critical,,,900,5,3077.0
680,54,IRQ,22,22,critical,,,901,5,3179.0
681,54,IRQ,21,21,critical,,,902,2,3426.0
682,54,IRQ,7,7,critical,,,903,3,4551.0
683,54,IRQ,25,25,critical,,,904,1,3055.0
684,54,IRQ,12,12,critical,,,905,5,3067.0
685,54,IRQ,27,27,critical,,,906,2,4490.0
686,54,IRQ,31,31,critical,,,907,1,8112.0
687,54,IRQ,23,23,critical,,,908,1,4223.0
688,54,IRQ,4,4,critical,,,909,2,4704.0
689,54,IRQ,16,16,critical,,,910,4,5466.0
690,54,IRQ,29,29,critical,,,911,1,3902.0
691,54,IRQ,18,18,critical,,,912,5,2818.0
692,54,IRQ,11,11,critical,,,913,5,10364.0
693,54,IRQ,33,33,critical,,,914,5,4376.0
694,54,IRQ,34,34,critical,,,915,4,5289.0
695,54,IRQ,9,9,critical,,,916,3,2998.0
696,54,IRQ,19,19,critical,,,917,1,3613.0
697,54,IRQ,37,37,catch,,,918,1,4864.0
698,54,IRQ,13,13,critical,,,919,3,5105.0
699,54,IRQ,38,38,catch,,,920,5,2520.0
700,54,IRQ,5,5,critical,,,921,2,4909.0
701,54,IRQ,17,17,critical,,,922,5,4202.0
702,54,IRQ,24,24,critical,,,923,1,3494.0
703,54,IRQ,32,32,critical,,,924,3,10438.0
704,54,IRQ,26,26,critical,,,925,1,18548.0
705,54,IRQ,10,10,critical,,,926,1,5563.0
706,54,IRQ,28,28,critical,,,927,5,3610.0
707,54,IRQ,39,39,catch,,,928,1,3290.0
708,54,IRQ,36,36,critical,,,929,3,3654.0
709,54,IRQ,15,15,critical,,,930,3,5401.0
710,54,IRQ,30,30,critical,,,931,5,4638.0
711,54,IRQ,35,35,critical,,,932,3,3588.0
712,54,IRQ,2,2,critical,,,933,5,3347.0
713,54,IRQ,3,3,critical,,,934,5,2865.0
714,54,IRQ,8,8,critical,,,935,5,5165.0
715,54,IRQ,1,1,critical,,,936,3,5037.0
716,54,IRQ,14,14,critical,,,937,5,2980.0
717,54,IRQ,20,20,critical,,,938,5,2283.0
718,57,IRQ,23,23,critical,,,900,2,14241.0
719,57,IRQ,34,34,critical,,,901,3,14917.0
720,57,IRQ,13,13,critical,,,902,5,4411.0
721,57,IRQ,31,31,critical,,,903,4,5390.0
722,57,IRQ,35,35,critical,,,904,3,3445.0
723,57,IRQ,39,39,catch,,,905,1,4670.0
724,57,IRQ,20,20,critical,,,906,3,3850.0
725,57,IRQ,19,19,critical,,,907,3,6480.0
726,57,IRQ,3,3,critical,,,908,2,3547.0
727,57,IRQ,9,9,critical,,,909,2,5787.0
728,57,IRQ,27,27,critical,,,910,2,6210.0
729,57,IRQ,32,32,critical,,,911,4,6072.0
730,57,IRQ,14,14,critical,,,912,4,3446.0
731,57,IRQ,6,6,critical,,,913,4,3339.0
732,57,IRQ,7,7,critical,,,914,4,5224.0
733,57,IRQ,12,12,critical,,,915,4,4481.0
734,57,IRQ,10,10,critical,,,916,4,10097.0
735,57,IRQ,33,33,critical,,,917,2,6646.0
736,57,IRQ,2,2,critical,,,918,4,9981.0
737,57,IRQ,37,37,catch,,,919,1,3902.0
738,57,IRQ,30,30,critical,,,920,5,10955.0
739,57,IRQ,17,17,critical,,,921,4,7806.0
740,57,IRQ,24,24,critical,,,922,3,4002.0
741,57,IRQ,16,16,critical,,,923,4,3842.0
742,57,IRQ,21,21,critical,,,924,4,2869.0
743,57,IRQ,38,38,catch,,,925,5,2835.0
744,57,IRQ,22,22,critical,,,926,3,3097.0
745,57,IRQ,25,25,critical,,,927,2,7157.0
746,57,IRQ,1,1,critical,,,928,4,2973.0
747,57,IRQ,8,8,critical,,,929,5,6136.0
748,57,IRQ,5,5,critical,,,930,2,8173.0
749,57,IRQ,26,26,critical,,,931,2,6215.0
750,57,IRQ,11,11,critical,,,932,2,5758.0
751,57,IRQ,4,4,critical,,,933,4,4764.0
752,57,IRQ,29,29,critical,,,934,3,5442.0
753,57,IRQ,28,28,critical,,,935,5,4791.0
754,57,IRQ,36,36,critical,,,936,5,3920.0
755,57,IRQ,18,18,critical,,,937,3,2430.0
756,57,IRQ,15,15,critical,,,938,3,4813.0
757,60,IRQ,7,7,critical,,,900,2,5760.0
758,60,IRQ,30,30,critical,,,901,3,10049.0
759,60,IRQ,22,22,critical,,,902,4,5571.0
760,60,IRQ,18,18,critical,,,903,4,4711.0
761,60,IRQ,17,17,critical,,,904,2,6664.0
762,60,IRQ,27,27,critical,,,905,4,4878.0
763,60,IRQ,29,29,critical,,,906,2,8229.0
764,60,IRQ,1,1,critical,,,907,4,3757.0
765,60,IRQ,38,38,catch,,,908,5,5203.0
766,60,IRQ,13,13,critical,,,909,4,5727.0
767,60,IRQ,19,19,critical,,,910,2,11368.0
768,60,IRQ,11,11,critical,,,911,4,7302.0
769,60,IRQ,16,16,critical,,,912,4,4925.0
770,60,IRQ,10,10,critical,,,913,3,11550.0
771,60,IRQ,15,15,critical,,,914,3,6013.0
772,60,IRQ,6,6,critical,,,915,3,6045.0
773,60,IRQ,3,3,critical,,,916,4,2544.0
774,60,IRQ,36,36,critical,,,917,1,5089.0
775,60,IRQ,8,8,critical,,,918,1,8421.0
776,60,IRQ,34,34,critical,,,919,3,9288.0
777,60,IRQ,26,26,critical,,,920,2,7298.0
778,60,IRQ,37,37,catch,,,921,1,7911.0
779,60,IRQ,14,14,critical,,,922,5,4443.0
780,60,IRQ,32,32,critical,,,923,5,8359.0
781,60,IRQ,21,21,critical,,,924,3,4191.0
782,60,IRQ,28,28,critical,,,925,3,6076.0
783,60,IRQ,5,5,critical,,,926,3,4574.0
784,60,IRQ,23,23,critical,,,927,2,4274.0
785,60,IRQ,4,4,critical,,,928,4,7583.0
786,60,IRQ,20,20,critical,,,929,3,4894.0
787,60,IRQ,24,24,critical,,,930,2,6321.0
788,60,IRQ,31,31,critical,,,931,2,4595.0
789,60,IRQ,9,9,critical,,,932,5,9233.0
790,60,IRQ,39,39,catch,,,933,1,3347.0
791,60,IRQ,35,35,critical,,,934,4,6890.0
792,60,IRQ,12,12,critical,,,935,4,5037.0
793,60,IRQ,33,33,critical,,,936,4,6522.0
794,60,IRQ,25,25,critical,,,937,1,5615.0
795,60,IRQ,2,2,critical,,,938,5,3377.0
796,62,IRQ,27,27,critical,,,900,4,8474.0
797,62,IRQ,29,29,critical,,,901,3,4686.0
798,62,IRQ,5,5,critical,,,902,5,5545.0
799,62,IRQ,24,24,critical,,,903,4,6570.0
800,62,IRQ,23,23,critical,,,904,5,6001.0
801,62,IRQ,37,37,catch,,,905,1,4779.0
802,62,IRQ,25,25,critical,,,906,2,5630.0
803,62,IRQ,38,38,catch,,,907,5,3264.0
804,62,IRQ,31,31,critical,,,908,3,3750.0
805,62,IRQ,6,6,critical,,,909,4,4470.0
806,62,IRQ,20,20,critical,,,910,4,4573.0
807,62,IRQ,26,26,critical,,,911,4,5481.0
808,62,IRQ,4,4,critical,,,912,4,3465.0
809,62,IRQ,21,21,critical,,,913,5,3963.0
810,62,IRQ,13,13,critical,,,914,4,4251.0
811,62,IRQ,19,19,critical,,,915,5,4374.0
812,62,IRQ,30,30,critical,,,916,4,6468.0
813,62,IRQ,1,1,critical,,,917,4,3261.0
814,62,IRQ,22,22,critical,,,918,5,5085.0
815,62,IRQ,33,33,critical,,,919,4,8452.0
816,62,IRQ,7,7,critical,,,920,3,4493.0
817,62,IRQ,28,28,critical,,,921,3,3979.0
818,62,IRQ,32,32,critical,,,922,4,4034.0
819,62,IRQ,35,35,critical,,,923,3,5901.0
820,62,IRQ,11,11,critical,,,924,4,6133.0
821,62,IRQ,15,15,critical,,,925,3,4985.0
822,62,IRQ,36,36,critical,,,926,4,2437.0
823,62,IRQ,9,9,critical,,,927,5,4352.0
824,62,IRQ,10,10,critical,,,928,2,7895.0
825,62,IRQ,17,17,critical,,,929,3,6050.0
826,62,IRQ,3,3,critical,,,930,3,2875.0
827,62,IRQ,39,39,catch,,,931,1,3748.0
828,62,IRQ,12,12,critical,,,932,3,7580.0
829,62,IRQ,16,16,critical,,,933,4,3669.0
830,62,IRQ,14,14,critical,,,934,4,3448.0
831,62,IRQ,2,2,critical,,,935,4,3019.0
832,62,IRQ,8,8,critical,,,936,4,4217.0
833,62,IRQ,18,18,critical,,,937,5,3158.0
834,62,IRQ,34,34,critical,,,938,3,4438.0
835,63,IRQ,34,34,critical,,,901,4,9688.0
836,63,IRQ,9,9,critical,,,902,3,7489.0
837,63,IRQ,6,6,critical,,,903,2,6457.0
838,63,IRQ,19,19,critical,,,904,1,4790.0
839,63,IRQ,14,14,critical,,,905,5,3579.0
840,63,IRQ,33,33,critical,,,906,4,8197.0
841,63,IRQ,4,4,critical,,,907,3,6031.0
842,63,IRQ,20,20,critical,,,908,1,5002.0
843,63,IRQ,35,35,critical,,,909,4,6272.0
844,63,IRQ,18,18,critical,,,910,5,8231.0
845,63,IRQ,8,8,critical,,,911,3,13380.0
846,63,IRQ,12,12,critical,,,912,5,6309.0
847,63,IRQ,1,1,critical,,,913,4,8489.0
848,63,IRQ,38,38,catch,,,914,5,2838.0
849,63,IRQ,23,23,critical,,,915,1,5256.0
850,63,IRQ,24,24,critical,,,916,1,4989.0
851,63,IRQ,32,32,critical,,,917,5,5847.0
852,63,IRQ,39,39,catch,,,918,1,3288.0
853,63,IRQ,10,10,critical,,,919,4,17814.0
854,63,IRQ,26,26,critical,,,920,1,5832.0
855,63,IRQ,11,11,critical,,,921,3,5969.0
856,63,IRQ,2,2,critical,,,922,4,4036.0
857,63,IRQ,37,37,catch,,,923,1,3332.0
858,63,IRQ,17,17,critical,,,924,5,4454.0
859,63,IRQ,25,25,critical,,,925,1,4934.0
860,63,IRQ,16,16,critical,,,926,4,4118.0
861,63,IRQ,29,29,critical,,,927,3,7462.0
862,63,IRQ,21,21,critical,,,928,3,7108.0
863,63,IRQ,36,36,critical,,,929,5,4034.0
864,63,IRQ,3,3,critical,,,930,3,4119.0
865,63,IRQ,28,28,critical,,,931,5,4089.0
866,63,IRQ,22,22,critical,,,932,5,4529.0
867,63,IRQ,31,31,critical,,,933,5,4216.0
868,63,IRQ,5,5,critical,,,934,3,5858.0
869,63,IRQ,15,15,critical,,,935,4,6761.0
870,63,IRQ,27,27,critical,,,936,4,6037.0
871,63,IRQ,30,30,critical,,,937,5,15739.0
872,63,IRQ,7,7,critical,,,938,3,5535.0
873,63,IRQ,13,13,critical,,,939,4,5702.0
